"rt","response","trial_type","trial_index","plugin_version","time_elapsed","part_id","task","item_number","item_type","segment","clause_type","number","stimulus","question","correct_answer","part_answer","correct"
"2413859","{""part_id"":""29""}","survey-html-form","0","2.0.0","2413864","29","","","","","","","","","","",""
"2521"," ","html-keyboard-response","2","2.0.0","2480494","29","item","null","pr_item","s0","sr","ss","<p class=""trial-stimulus"">_______ | ____ | _______ | _______ | ____</p>","","","",""
"405"," ","html-keyboard-response","3","2.0.0","2480900","29","item","null","pr_item","s1","sr","ss","<p class=""trial-stimulus"">The cat | ____ | _______ | _______ | ____</p>","","","",""
"368"," ","html-keyboard-response","4","2.0.0","2481270","29","item","null","pr_item","s2","sr","ss","<p class=""trial-stimulus"">_______ | that | _______ | _______ | ____</p>","","","",""
"350"," ","html-keyboard-response","5","2.0.0","2481620","29","item","null","pr_item","s3","sr","ss","<p class=""trial-stimulus"">_______ | ____ | watches | _______ | ____</p>","","","",""
"382"," ","html-keyboard-response","6","2.0.0","2482003","29","item","null","pr_item","s4","sr","ss","<p class=""trial-stimulus"">_______ | ____ | _______ | the dog | ____</p>","","","",""
"376"," ","html-keyboard-response","7","2.0.0","2482380","29","item","null","pr_item","s5","sr","ss","<p class=""trial-stimulus"">_______ | ____ | _______ | _______ | eats</p>","false","","",""
"1004"," ","html-keyboard-response","9","2.0.0","2483901","29","item","null","pr_item","s0","or","ss","<p class=""trial-stimulus"">_________ | ____ | _________ | _____ | ______</p>","","","",""
"414"," ","html-keyboard-response","10","2.0.0","2484316","29","item","null","pr_item","s1","or","ss","<p class=""trial-stimulus"">The horse | ____ | _________ | _____ | ______</p>","","","",""
"408"," ","html-keyboard-response","11","2.0.0","2484725","29","item","null","pr_item","s2","or","ss","<p class=""trial-stimulus"">_________ | that | _________ | _____ | ______</p>","","","",""
"486"," ","html-keyboard-response","12","2.0.0","2485211","29","item","null","pr_item","s3","or","ss","<p class=""trial-stimulus"">_________ | ____ | the zebra | _____ | ______</p>","","","",""
"481"," ","html-keyboard-response","13","2.0.0","2485693","29","item","null","pr_item","s4","or","ss","<p class=""trial-stimulus"">_________ | ____ | _________ | kicks | ______</p>","","","",""
"758"," ","html-keyboard-response","14","2.0.0","2486452","29","item","null","pr_item","s5","or","ss","<p class=""trial-stimulus"">_________ | ____ | _________ | _____ | laughs</p>","<div class='container trial-question'>
            <h2 class='trial-question-header'>Who laughs?</h2>
            <div>
              <div class='container'>
                <h2 class='trial-question-answer'>The zebra</h2>
                <h2 class='trial-question-key'>F</h2>
              </div>
              <div class='container'>
                <h2 class='trial-question-answer'>The horse</h2>
                <h2 class='trial-question-key'>J</h2>
              </div>
            </div>
          </div>","","",""
"8201","j","html-keyboard-response","15","2.0.0","2495166","29","question","null","pr_item","","or","ss","<div class='container trial-question'>
            <h2 class='trial-question-header'>Who laughs?</h2>
            <div>
              <div class='container'>
                <h2 class='trial-question-answer'>The zebra</h2>
                <h2 class='trial-question-key'>F</h2>
              </div>
              <div class='container'>
                <h2 class='trial-question-answer'>The horse</h2>
                <h2 class='trial-question-key'>J</h2>
              </div>
            </div>
          </div>","","j","j","1"
"1052"," ","html-keyboard-response","17","2.0.0","2505654","29","item","8","exp_item","s0","or","pp","<p class=""trial-stimulus"">________ | ____ | ________ | ___ | _____</p>","","","",""
"719"," ","html-keyboard-response","18","2.0.0","2506374","29","item","8","exp_item","s1","or","pp","<p class=""trial-stimulus"">The cats | ____ | ________ | ___ | _____</p>","","","",""
"548"," ","html-keyboard-response","19","2.0.0","2506923","29","item","8","exp_item","s2","or","pp","<p class=""trial-stimulus"">________ | that | ________ | ___ | _____</p>","","","",""
"800"," ","html-keyboard-response","20","2.0.0","2507723","29","item","8","exp_item","s3","or","pp","<p class=""trial-stimulus"">________ | ____ | the dogs | ___ | _____</p>","","","",""
"1176"," ","html-keyboard-response","21","2.0.0","2508900","29","item","8","exp_item","s4","or","pp","<p class=""trial-stimulus"">________ | ____ | ________ | hug | _____</p>","","","",""
"1303"," ","html-keyboard-response","22","2.0.0","2510204","29","item","8","exp_item","s5","or","pp","<p class=""trial-stimulus"">________ | ____ | ________ | ___ | smile</p>","false","","",""
"2267"," ","html-keyboard-response","24","2.0.0","2512981","29","item","9","fill_item","s0","sr","ss","<p class=""trial-stimulus"">__________ | ___ | ______ | __________ | _______</p>","","","",""
"597"," ","html-keyboard-response","25","2.0.0","2513579","29","item","9","fill_item","s1","sr","ss","<p class=""trial-stimulus"">The singer | ___ | ______ | __________ | _______</p>","","","",""
"608"," ","html-keyboard-response","26","2.0.0","2514188","29","item","9","fill_item","s2","sr","ss","<p class=""trial-stimulus"">__________ | who | ______ | __________ | _______</p>","","","",""
"479"," ","html-keyboard-response","27","2.0.0","2514667","29","item","9","fill_item","s3","sr","ss","<p class=""trial-stimulus"">__________ | ___ | throws | __________ | _______</p>","","","",""
"695"," ","html-keyboard-response","28","2.0.0","2515363","29","item","9","fill_item","s4","sr","ss","<p class=""trial-stimulus"">__________ | ___ | ______ | the guitar | _______</p>","","","",""
"1160"," ","html-keyboard-response","29","2.0.0","2516524","29","item","9","fill_item","s5","sr","ss","<p class=""trial-stimulus"">__________ | ___ | ______ | __________ | screams</p>","<div class='container trial-question'>
      <h2 class='trial-question-header'>Does the singer scream?</h2>
      <div>
        <div class='container'>
          <h2 class='trial-question-answer'>No</h2>
          <h2 class='trial-question-key'>F</h2>
        </div>
        <div class='container'>
          <h2 class='trial-question-answer'>Yes</h2>
          <h2 class='trial-question-key'>J</h2>
        </div>
      </div>
    </div>","","",""
"5192","j","html-keyboard-response","30","2.0.0","2522230","29","question","9","fill_item","","sr","ss","<div class='container trial-question'>
      <h2 class='trial-question-header'>Does the singer scream?</h2>
      <div>
        <div class='container'>
          <h2 class='trial-question-answer'>No</h2>
          <h2 class='trial-question-key'>F</h2>
        </div>
        <div class='container'>
          <h2 class='trial-question-answer'>Yes</h2>
          <h2 class='trial-question-key'>J</h2>
        </div>
      </div>
    </div>","","j","j","1"
"1170"," ","html-keyboard-response","31","2.0.0","2523907","29","item","4","exp_item","s0","or","sp","<p class=""trial-stimulus"">_________ | ____ | __________ | ______ | ____</p>","","","",""
"688"," ","html-keyboard-response","32","2.0.0","2524596","29","item","4","exp_item","s1","or","sp","<p class=""trial-stimulus"">The zebra | ____ | __________ | ______ | ____</p>","","","",""
"607"," ","html-keyboard-response","33","2.0.0","2525203","29","item","4","exp_item","s2","or","sp","<p class=""trial-stimulus"">_________ | that | __________ | ______ | ____</p>","","","",""
"1071"," ","html-keyboard-response","34","2.0.0","2526275","29","item","4","exp_item","s3","or","sp","<p class=""trial-stimulus"">_________ | ____ | the horses | ______ | ____</p>","","","",""
"1832"," ","html-keyboard-response","35","2.0.0","2528108","29","item","4","exp_item","s4","or","sp","<p class=""trial-stimulus"">_________ | ____ | __________ | follow | ____</p>","","","",""
"2768"," ","html-keyboard-response","36","2.0.0","2530877","29","item","4","exp_item","s5","or","sp","<p class=""trial-stimulus"">_________ | ____ | __________ | ______ | runs</p>","<div class='container trial-question'>
     <h2 class='trial-question-header'>Who runs?</h2>
      <div>
        <div class='container'>
          <h2 class='trial-question-answer'>The horses</h2>
          <h2 class='trial-question-key'>F</h2>
        </div>
        <div class='container'>
          <h2 class='trial-question-answer'>The zebra</h2>
          <h2 class='trial-question-key'>J</h2>
        </div>
      </div>
    </div>","","",""
"5716","j","html-keyboard-response","37","2.0.0","2537099","29","question","4","exp_item","","or","sp","<div class='container trial-question'>
     <h2 class='trial-question-header'>Who runs?</h2>
      <div>
        <div class='container'>
          <h2 class='trial-question-answer'>The horses</h2>
          <h2 class='trial-question-key'>F</h2>
        </div>
        <div class='container'>
          <h2 class='trial-question-answer'>The zebra</h2>
          <h2 class='trial-question-key'>J</h2>
        </div>
      </div>
    </div>","","j","j","1"
"713"," ","html-keyboard-response","38","2.0.0","2538326","29","item","10","fill_item","s0","sr","ss","<p class=""trial-stimulus"">__________ | ___ | ______ | __________ | _______</p>","","","",""
"654"," ","html-keyboard-response","39","2.0.0","2538981","29","item","10","fill_item","s1","sr","ss","<p class=""trial-stimulus"">The singer | ___ | ______ | __________ | _______</p>","","","",""
"702"," ","html-keyboard-response","40","2.0.0","2539684","29","item","10","fill_item","s2","sr","ss","<p class=""trial-stimulus"">__________ | who | ______ | __________ | _______</p>","","","",""
"1560"," ","html-keyboard-response","41","2.0.0","2541246","29","item","10","fill_item","s3","sr","ss","<p class=""trial-stimulus"">__________ | ___ | stores | __________ | _______</p>","","","",""
"861"," ","html-keyboard-response","42","2.0.0","2542107","29","item","10","fill_item","s4","sr","ss","<p class=""trial-stimulus"">__________ | ___ | ______ | the guitar | _______</p>","","","",""
"704"," ","html-keyboard-response","43","2.0.0","2542811","29","item","10","fill_item","s5","sr","ss","<p class=""trial-stimulus"">__________ | ___ | ______ | __________ | murmurs</p>","false","","",""
"2606"," ","html-keyboard-response","45","2.0.0","2545924","29","item","8","fill_item","s0","sr","ss","<p class=""trial-stimulus"">__________ | ___ | _______ | __________ | _____</p>","","","",""
"575"," ","html-keyboard-response","46","2.0.0","2546500","29","item","8","fill_item","s1","sr","ss","<p class=""trial-stimulus"">The singer | ___ | _______ | __________ | _____</p>","","","",""
"505"," ","html-keyboard-response","47","2.0.0","2547005","29","item","8","fill_item","s2","sr","ss","<p class=""trial-stimulus"">__________ | who | _______ | __________ | _____</p>","","","",""
"590"," ","html-keyboard-response","48","2.0.0","2547596","29","item","8","fill_item","s3","sr","ss","<p class=""trial-stimulus"">__________ | ___ | smashes | __________ | _____</p>","","","",""
"871"," ","html-keyboard-response","49","2.0.0","2548467","29","item","8","fill_item","s4","sr","ss","<p class=""trial-stimulus"">__________ | ___ | _______ | the guitar | _____</p>","","","",""
"1032"," ","html-keyboard-response","50","2.0.0","2549499","29","item","8","fill_item","s5","sr","ss","<p class=""trial-stimulus"">__________ | ___ | _______ | __________ | cries</p>","false","","",""
"1903"," ","html-keyboard-response","52","2.0.0","2551917","29","item","3","fill_item","s0","sr","ss","<p class=""trial-stimulus"">________ | ___ | _____ | _______ | ______</p>","","","",""
"750"," ","html-keyboard-response","53","2.0.0","2552668","29","item","3","fill_item","s1","sr","ss","<p class=""trial-stimulus"">The chef | ___ | _____ | _______ | ______</p>","","","",""
"512"," ","html-keyboard-response","54","2.0.0","2553180","29","item","3","fill_item","s2","sr","ss","<p class=""trial-stimulus"">________ | who | _____ | _______ | ______</p>","","","",""
"879"," ","html-keyboard-response","55","2.0.0","2554060","29","item","3","fill_item","s3","sr","ss","<p class=""trial-stimulus"">________ | ___ | opens | _______ | ______</p>","","","",""
"871"," ","html-keyboard-response","56","2.0.0","2554931","29","item","3","fill_item","s4","sr","ss","<p class=""trial-stimulus"">________ | ___ | _____ | the box | ______</p>","","","",""
"1440"," ","html-keyboard-response","57","2.0.0","2556372","29","item","3","fill_item","s5","sr","ss","<p class=""trial-stimulus"">________ | ___ | _____ | _______ | smiles</p>","false","","",""
"1741"," ","html-keyboard-response","59","2.0.0","2558621","29","item","4","exp_item","s0","or","pp","<p class=""trial-stimulus"">__________ | ____ | __________ | ______ | ___</p>","","","",""
"1077"," ","html-keyboard-response","60","2.0.0","2559699","29","item","4","exp_item","s1","or","pp","<p class=""trial-stimulus"">The zebras | ____ | __________ | ______ | ___</p>","","","",""
"825"," ","html-keyboard-response","61","2.0.0","2560526","29","item","4","exp_item","s2","or","pp","<p class=""trial-stimulus"">__________ | that | __________ | ______ | ___</p>","","","",""
"1621"," ","html-keyboard-response","62","2.0.0","2562147","29","item","4","exp_item","s3","or","pp","<p class=""trial-stimulus"">__________ | ____ | the horses | ______ | ___</p>","","","",""
"1192"," ","html-keyboard-response","63","2.0.0","2563339","29","item","4","exp_item","s4","or","pp","<p class=""trial-stimulus"">__________ | ____ | __________ | follow | ___</p>","","","",""
"969"," ","html-keyboard-response","64","2.0.0","2564309","29","item","4","exp_item","s5","or","pp","<p class=""trial-stimulus"">__________ | ____ | __________ | ______ | run</p>","false","","",""
"1353"," ","html-keyboard-response","66","2.0.0","2566165","29","item","4","exp_item","s0","sr","ss","<p class=""trial-stimulus"">_________ | ____ | _______ | _________ | ____</p>","","","",""
"837"," ","html-keyboard-response","67","2.0.0","2567003","29","item","4","exp_item","s1","sr","ss","<p class=""trial-stimulus"">The zebra | ____ | _______ | _________ | ____</p>","","","",""
"535"," ","html-keyboard-response","68","2.0.0","2567539","29","item","4","exp_item","s2","sr","ss","<p class=""trial-stimulus"">_________ | that | _______ | _________ | ____</p>","","","",""
"696"," ","html-keyboard-response","69","2.0.0","2568235","29","item","4","exp_item","s3","sr","ss","<p class=""trial-stimulus"">_________ | ____ | follows | _________ | ____</p>","","","",""
"873"," ","html-keyboard-response","70","2.0.0","2569109","29","item","4","exp_item","s4","sr","ss","<p class=""trial-stimulus"">_________ | ____ | _______ | the horse | ____</p>","","","",""
"1727"," ","html-keyboard-response","71","2.0.0","2570836","29","item","4","exp_item","s5","sr","ss","<p class=""trial-stimulus"">_________ | ____ | _______ | _________ | runs</p>","false","","",""
"679"," ","html-keyboard-response","73","2.0.0","2572027","29","item","1","fill_item","s0","sr","ss","<p class=""trial-stimulus"">________ | ___ | _______ | _______ | _____</p>","","","",""
"559"," ","html-keyboard-response","74","2.0.0","2572587","29","item","1","fill_item","s1","sr","ss","<p class=""trial-stimulus"">The chef | ___ | _______ | _______ | _____</p>","","","",""
"360"," ","html-keyboard-response","75","2.0.0","2572947","29","item","1","fill_item","s2","sr","ss","<p class=""trial-stimulus"">________ | who | _______ | _______ | _____</p>","","","",""
"775"," ","html-keyboard-response","76","2.0.0","2573723","29","item","1","fill_item","s3","sr","ss","<p class=""trial-stimulus"">________ | ___ | carries | _______ | _____</p>","","","",""
"650"," ","html-keyboard-response","77","2.0.0","2574374","29","item","1","fill_item","s4","sr","ss","<p class=""trial-stimulus"">________ | ___ | _______ | the box | _____</p>","","","",""
"1278"," ","html-keyboard-response","78","2.0.0","2575653","29","item","1","fill_item","s5","sr","ss","<p class=""trial-stimulus"">________ | ___ | _______ | _______ | falls</p>","false","","",""
"1322"," ","html-keyboard-response","80","2.0.0","2577483","29","item","8","exp_item","s0","or","ss","<p class=""trial-stimulus"">_______ | ____ | _______ | ____ | ______</p>","","","",""
"519"," ","html-keyboard-response","81","2.0.0","2578003","29","item","8","exp_item","s1","or","ss","<p class=""trial-stimulus"">The cat | ____ | _______ | ____ | ______</p>","","","",""
"608"," ","html-keyboard-response","82","2.0.0","2578612","29","item","8","exp_item","s2","or","ss","<p class=""trial-stimulus"">_______ | that | _______ | ____ | ______</p>","","","",""
"967"," ","html-keyboard-response","83","2.0.0","2579579","29","item","8","exp_item","s3","or","ss","<p class=""trial-stimulus"">_______ | ____ | the dog | ____ | ______</p>","","","",""
"825"," ","html-keyboard-response","84","2.0.0","2580405","29","item","8","exp_item","s4","or","ss","<p class=""trial-stimulus"">_______ | ____ | _______ | hugs | ______</p>","","","",""
"4109"," ","html-keyboard-response","85","2.0.0","2584515","29","item","8","exp_item","s5","or","ss","<p class=""trial-stimulus"">_______ | ____ | _______ | ____ | smiles</p>","false","","",""
"1113"," ","html-keyboard-response","87","2.0.0","2586131","29","item","1","exp_item","s0","or","ss","<p class=""trial-stimulus"">_________ | ____ | _________ | ______ | _____</p>","","","",""
"928"," ","html-keyboard-response","88","2.0.0","2587059","29","item","1","exp_item","s1","or","ss","<p class=""trial-stimulus"">The horse | ____ | _________ | ______ | _____</p>","","","",""
"569"," ","html-keyboard-response","89","2.0.0","2587629","29","item","1","exp_item","s2","or","ss","<p class=""trial-stimulus"">_________ | that | _________ | ______ | _____</p>","","","",""
"1143"," ","html-keyboard-response","90","2.0.0","2588774","29","item","1","exp_item","s3","or","ss","<p class=""trial-stimulus"">_________ | ____ | the zebra | ______ | _____</p>","","","",""
"789"," ","html-keyboard-response","91","2.0.0","2589564","29","item","1","exp_item","s4","or","ss","<p class=""trial-stimulus"">_________ | ____ | _________ | chases | _____</p>","","","",""
"2256"," ","html-keyboard-response","92","2.0.0","2591821","29","item","1","exp_item","s5","or","ss","<p class=""trial-stimulus"">_________ | ____ | _________ | ______ | falls</p>","false","","",""
"1033"," ","html-keyboard-response","94","2.0.0","2593364","29","item","12","fill_item","s0","sr","ss","<p class=""trial-stimulus"">_________ | ___ | _____ | __________ | _______</p>","","","",""
"926"," ","html-keyboard-response","95","2.0.0","2594291","29","item","12","fill_item","s1","sr","ss","<p class=""trial-stimulus"">The woman | ___ | _____ | __________ | _______</p>","","","",""
"448"," ","html-keyboard-response","96","2.0.0","2594740","29","item","12","fill_item","s2","sr","ss","<p class=""trial-stimulus"">_________ | who | _____ | __________ | _______</p>","","","",""
"631"," ","html-keyboard-response","97","2.0.0","2595371","29","item","12","fill_item","s3","sr","ss","<p class=""trial-stimulus"">_________ | ___ | reads | __________ | _______</p>","","","",""
"784"," ","html-keyboard-response","98","2.0.0","2596156","29","item","12","fill_item","s4","sr","ss","<p class=""trial-stimulus"">_________ | ___ | _____ | the letter | _______</p>","","","",""
"1921"," ","html-keyboard-response","99","2.0.0","2598078","29","item","12","fill_item","s5","sr","ss","<p class=""trial-stimulus"">_________ | ___ | _____ | __________ | screams</p>","false","","",""
"1172"," ","html-keyboard-response","101","2.0.0","2599756","29","item","7","exp_item","s0","sr","sp","<p class=""trial-stimulus"">_______ | ____ | ______ | ________ | _____</p>","","","",""
"401"," ","html-keyboard-response","102","2.0.0","2600158","29","item","7","exp_item","s1","sr","sp","<p class=""trial-stimulus"">The dog | ____ | ______ | ________ | _____</p>","","","",""
"653"," ","html-keyboard-response","103","2.0.0","2600813","29","item","7","exp_item","s2","sr","sp","<p class=""trial-stimulus"">_______ | that | ______ | ________ | _____</p>","","","",""
"1110"," ","html-keyboard-response","104","2.0.0","2601924","29","item","7","exp_item","s3","sr","sp","<p class=""trial-stimulus"">_______ | ____ | pushes | ________ | _____</p>","","","",""
"840"," ","html-keyboard-response","105","2.0.0","2602764","29","item","7","exp_item","s4","sr","sp","<p class=""trial-stimulus"">_______ | ____ | ______ | the cats | _____</p>","","","",""
"823"," ","html-keyboard-response","106","2.0.0","2603587","29","item","7","exp_item","s5","sr","sp","<p class=""trial-stimulus"">_______ | ____ | ______ | ________ | cries</p>","false","","",""
"1209"," ","html-keyboard-response","108","2.0.0","2605309","29","item","1","exp_item","s0","sr","sp","<p class=""trial-stimulus"">_________ | ____ | ______ | __________ | _____</p>","","","",""
"1326"," ","html-keyboard-response","109","2.0.0","2606636","29","item","1","exp_item","s1","sr","sp","<p class=""trial-stimulus"">The horse | ____ | ______ | __________ | _____</p>","","","",""
"823"," ","html-keyboard-response","110","2.0.0","2607459","29","item","1","exp_item","s2","sr","sp","<p class=""trial-stimulus"">_________ | that | ______ | __________ | _____</p>","","","",""
"952"," ","html-keyboard-response","111","2.0.0","2608411","29","item","1","exp_item","s3","sr","sp","<p class=""trial-stimulus"">_________ | ____ | chases | __________ | _____</p>","","","",""
"752"," ","html-keyboard-response","112","2.0.0","2609164","29","item","1","exp_item","s4","sr","sp","<p class=""trial-stimulus"">_________ | ____ | ______ | the zebras | _____</p>","","","",""
"1241"," ","html-keyboard-response","113","2.0.0","2610406","29","item","1","exp_item","s5","sr","sp","<p class=""trial-stimulus"">_________ | ____ | ______ | __________ | falls</p>","false","","",""
"1206"," ","html-keyboard-response","115","2.0.0","2612117","29","item","8","exp_item","s0","sr","ps","<p class=""trial-stimulus"">________ | ____ | ___ | _______ | _____</p>","","","",""
"663"," ","html-keyboard-response","116","2.0.0","2612781","29","item","8","exp_item","s1","sr","ps","<p class=""trial-stimulus"">The cats | ____ | ___ | _______ | _____</p>","","","",""
"463"," ","html-keyboard-response","117","2.0.0","2613245","29","item","8","exp_item","s2","sr","ps","<p class=""trial-stimulus"">________ | that | ___ | _______ | _____</p>","","","",""
"685"," ","html-keyboard-response","118","2.0.0","2613931","29","item","8","exp_item","s3","sr","ps","<p class=""trial-stimulus"">________ | ____ | hug | _______ | _____</p>","","","",""
"1271"," ","html-keyboard-response","119","2.0.0","2615203","29","item","8","exp_item","s4","sr","ps","<p class=""trial-stimulus"">________ | ____ | ___ | the dog | _____</p>","","","",""
"1328"," ","html-keyboard-response","120","2.0.0","2616532","29","item","8","exp_item","s5","sr","ps","<p class=""trial-stimulus"">________ | ____ | ___ | _______ | smile</p>","false","","",""
"878"," ","html-keyboard-response","122","2.0.0","2617924","29","item","8","exp_item","s0","sr","pp","<p class=""trial-stimulus"">________ | ____ | ___ | ________ | _____</p>","","","",""
"457"," ","html-keyboard-response","123","2.0.0","2618381","29","item","8","exp_item","s1","sr","pp","<p class=""trial-stimulus"">The cats | ____ | ___ | ________ | _____</p>","","","",""
"574"," ","html-keyboard-response","124","2.0.0","2618955","29","item","8","exp_item","s2","sr","pp","<p class=""trial-stimulus"">________ | that | ___ | ________ | _____</p>","","","",""
"616"," ","html-keyboard-response","125","2.0.0","2619572","29","item","8","exp_item","s3","sr","pp","<p class=""trial-stimulus"">________ | ____ | hug | ________ | _____</p>","","","",""
"625"," ","html-keyboard-response","126","2.0.0","2620197","29","item","8","exp_item","s4","sr","pp","<p class=""trial-stimulus"">________ | ____ | ___ | the dogs | _____</p>","","","",""
"797"," ","html-keyboard-response","127","2.0.0","2620995","29","item","8","exp_item","s5","sr","pp","<p class=""trial-stimulus"">________ | ____ | ___ | ________ | smile</p>","false","","",""
"825"," ","html-keyboard-response","129","2.0.0","2622325","29","item","4","fill_item","s0","sr","ss","<p class=""trial-stimulus"">________ | ___ | ______ | _______ | _______</p>","","","",""
"645"," ","html-keyboard-response","130","2.0.0","2622972","29","item","4","fill_item","s1","sr","ss","<p class=""trial-stimulus"">The chef | ___ | ______ | _______ | _______</p>","","","",""
"392"," ","html-keyboard-response","131","2.0.0","2623364","29","item","4","fill_item","s2","sr","ss","<p class=""trial-stimulus"">________ | who | ______ | _______ | _______</p>","","","",""
"647"," ","html-keyboard-response","132","2.0.0","2624011","29","item","4","fill_item","s3","sr","ss","<p class=""trial-stimulus"">________ | ___ | throws | _______ | _______</p>","","","",""
"1071"," ","html-keyboard-response","133","2.0.0","2625083","29","item","4","fill_item","s4","sr","ss","<p class=""trial-stimulus"">________ | ___ | ______ | the box | _______</p>","","","",""
"2009"," ","html-keyboard-response","134","2.0.0","2627093","29","item","4","fill_item","s5","sr","ss","<p class=""trial-stimulus"">________ | ___ | ______ | _______ | screams</p>","false","","",""
"737"," ","html-keyboard-response","136","2.0.0","2628339","29","item","7","exp_item","s0","or","pp","<p class=""trial-stimulus"">________ | ____ | ________ | ____ | ___</p>","","","",""
"641"," ","html-keyboard-response","137","2.0.0","2628981","29","item","7","exp_item","s1","or","pp","<p class=""trial-stimulus"">The dogs | ____ | ________ | ____ | ___</p>","","","",""
"1063"," ","html-keyboard-response","138","2.0.0","2630044","29","item","7","exp_item","s2","or","pp","<p class=""trial-stimulus"">________ | that | ________ | ____ | ___</p>","","","",""
"688"," ","html-keyboard-response","139","2.0.0","2630733","29","item","7","exp_item","s3","or","pp","<p class=""trial-stimulus"">________ | ____ | the cats | ____ | ___</p>","","","",""
"974"," ","html-keyboard-response","140","2.0.0","2631708","29","item","7","exp_item","s4","or","pp","<p class=""trial-stimulus"">________ | ____ | ________ | push | ___</p>","","","",""
"600"," ","html-keyboard-response","141","2.0.0","2632309","29","item","7","exp_item","s5","or","pp","<p class=""trial-stimulus"">________ | ____ | ________ | ____ | cry</p>","false","","",""
"1820"," ","html-keyboard-response","143","2.0.0","2634636","29","item","7","exp_item","s0","or","ss","<p class=""trial-stimulus"">_______ | ____ | _______ | ______ | _____</p>","","","",""
"839"," ","html-keyboard-response","144","2.0.0","2635477","29","item","7","exp_item","s1","or","ss","<p class=""trial-stimulus"">The dog | ____ | _______ | ______ | _____</p>","","","",""
"661"," ","html-keyboard-response","145","2.0.0","2636139","29","item","7","exp_item","s2","or","ss","<p class=""trial-stimulus"">_______ | that | _______ | ______ | _____</p>","","","",""
"911"," ","html-keyboard-response","146","2.0.0","2637051","29","item","7","exp_item","s3","or","ss","<p class=""trial-stimulus"">_______ | ____ | the cat | ______ | _____</p>","","","",""
"984"," ","html-keyboard-response","147","2.0.0","2638036","29","item","7","exp_item","s4","or","ss","<p class=""trial-stimulus"">_______ | ____ | _______ | pushes | _____</p>","","","",""
"2766"," ","html-keyboard-response","148","2.0.0","2640804","29","item","7","exp_item","s5","or","ss","<p class=""trial-stimulus"">_______ | ____ | _______ | ______ | cries</p>","<div class='container trial-question'>
      <h2 class='trial-question-header'>Who cries?</h2>
      <div>
        <div class='container'>
          <h2 class='trial-question-answer'>The dog</h2>
          <h2 class='trial-question-key'>F</h2>
        </div>
        <div class='container'>
          <h2 class='trial-question-answer'>The cat</h2>
          <h2 class='trial-question-key'>J</h2>
        </div>
      </div>
    </div>","","",""
"3003","f","html-keyboard-response","149","2.0.0","2644317","29","question","7","exp_item","","or","ss","<div class='container trial-question'>
      <h2 class='trial-question-header'>Who cries?</h2>
      <div>
        <div class='container'>
          <h2 class='trial-question-answer'>The dog</h2>
          <h2 class='trial-question-key'>F</h2>
        </div>
        <div class='container'>
          <h2 class='trial-question-answer'>The cat</h2>
          <h2 class='trial-question-key'>J</h2>
        </div>
      </div>
    </div>","","f","f","1"
"739"," ","html-keyboard-response","150","2.0.0","2645572","29","item","4","exp_item","s0","or","ss","<p class=""trial-stimulus"">_________ | ____ | _________ | _______ | ____</p>","","","",""
"871"," ","html-keyboard-response","151","2.0.0","2646444","29","item","4","exp_item","s1","or","ss","<p class=""trial-stimulus"">The zebra | ____ | _________ | _______ | ____</p>","","","",""
"567"," ","html-keyboard-response","152","2.0.0","2647012","29","item","4","exp_item","s2","or","ss","<p class=""trial-stimulus"">_________ | that | _________ | _______ | ____</p>","","","",""
"919"," ","html-keyboard-response","153","2.0.0","2647932","29","item","4","exp_item","s3","or","ss","<p class=""trial-stimulus"">_________ | ____ | the horse | _______ | ____</p>","","","",""
"855"," ","html-keyboard-response","154","2.0.0","2648787","29","item","4","exp_item","s4","or","ss","<p class=""trial-stimulus"">_________ | ____ | _________ | follows | ____</p>","","","",""
"2472"," ","html-keyboard-response","155","2.0.0","2651259","29","item","4","exp_item","s5","or","ss","<p class=""trial-stimulus"">_________ | ____ | _________ | _______ | runs</p>","false","","",""
"721"," ","html-keyboard-response","157","2.0.0","2652485","29","item","13","fill_item","s0","sr","ss","<p class=""trial-stimulus"">_________ | ___ | _____ | __________ | ______</p>","","","",""
"374"," ","html-keyboard-response","158","2.0.0","2652859","29","item","13","fill_item","s1","sr","ss","<p class=""trial-stimulus"">The woman | ___ | _____ | __________ | ______</p>","","","",""
"857"," ","html-keyboard-response","159","2.0.0","2653717","29","item","13","fill_item","s2","sr","ss","<p class=""trial-stimulus"">_________ | who | _____ | __________ | ______</p>","","","",""
"1046"," ","html-keyboard-response","160","2.0.0","2654764","29","item","13","fill_item","s3","sr","ss","<p class=""trial-stimulus"">_________ | ___ | burns | __________ | ______</p>","","","",""
"879"," ","html-keyboard-response","161","2.0.0","2655643","29","item","13","fill_item","s4","sr","ss","<p class=""trial-stimulus"">_________ | ___ | _____ | the letter | ______</p>","","","",""
"1776"," ","html-keyboard-response","162","2.0.0","2657421","29","item","13","fill_item","s5","sr","ss","<p class=""trial-stimulus"">_________ | ___ | _____ | __________ | leaves</p>","<div class='container trial-question'>
      <h2 class='trial-question-header'>Does the woman leave?</h2>
      <div>
        <div class='container'>
          <h2 class='trial-question-answer'>No</h2>
          <h2 class='trial-question-key'>F</h2>
        </div>
        <div class='container'>
          <h2 class='trial-question-answer'>Yes</h2>
          <h2 class='trial-question-key'>J</h2>
        </div>
      </div>
    </div>","","",""
"1932","j","html-keyboard-response","163","2.0.0","2659868","29","question","13","fill_item","","sr","ss","<div class='container trial-question'>
      <h2 class='trial-question-header'>Does the woman leave?</h2>
      <div>
        <div class='container'>
          <h2 class='trial-question-answer'>No</h2>
          <h2 class='trial-question-key'>F</h2>
        </div>
        <div class='container'>
          <h2 class='trial-question-answer'>Yes</h2>
          <h2 class='trial-question-key'>J</h2>
        </div>
      </div>
    </div>","","j","j","1"
"612"," ","html-keyboard-response","164","2.0.0","2660996","29","item","15","fill_item","s0","sr","ss","<p class=""trial-stimulus"">_________ | ___ | ______ | __________ | _______</p>","","","",""
"600"," ","html-keyboard-response","165","2.0.0","2661597","29","item","15","fill_item","s1","sr","ss","<p class=""trial-stimulus"">The woman | ___ | ______ | __________ | _______</p>","","","",""
"663"," ","html-keyboard-response","166","2.0.0","2662261","29","item","15","fill_item","s2","sr","ss","<p class=""trial-stimulus"">_________ | who | ______ | __________ | _______</p>","","","",""
"775"," ","html-keyboard-response","167","2.0.0","2663037","29","item","15","fill_item","s3","sr","ss","<p class=""trial-stimulus"">_________ | ___ | stores | __________ | _______</p>","","","",""
"1838"," ","html-keyboard-response","168","2.0.0","2664877","29","item","15","fill_item","s4","sr","ss","<p class=""trial-stimulus"">_________ | ___ | ______ | the letter | _______</p>","","","",""
"679"," ","html-keyboard-response","169","2.0.0","2665558","29","item","15","fill_item","s5","sr","ss","<p class=""trial-stimulus"">_________ | ___ | ______ | __________ | murmurs</p>","<div class='container trial-question'>
      <h2 class='trial-question-header'>Does the woman murmur?</h2>
      <div>
        <div class='container'>
          <h2 class='trial-question-answer'>No</h2>
          <h2 class='trial-question-key'>F</h2>
        </div>
        <div class='container'>
          <h2 class='trial-question-answer'>Yes</h2>
          <h2 class='trial-question-key'>J</h2>
        </div>
      </div>
    </div>","","",""
"1690","j","html-keyboard-response","170","2.0.0","2667756","29","question","15","fill_item","","sr","ss","<div class='container trial-question'>
      <h2 class='trial-question-header'>Does the woman murmur?</h2>
      <div>
        <div class='container'>
          <h2 class='trial-question-answer'>No</h2>
          <h2 class='trial-question-key'>F</h2>
        </div>
        <div class='container'>
          <h2 class='trial-question-answer'>Yes</h2>
          <h2 class='trial-question-key'>J</h2>
        </div>
      </div>
    </div>","","j","j","1"
"564"," ","html-keyboard-response","171","2.0.0","2668828","29","item","7","exp_item","s0","sr","pp","<p class=""trial-stimulus"">________ | ____ | ____ | ________ | ___</p>","","","",""
"600"," ","html-keyboard-response","172","2.0.0","2669429","29","item","7","exp_item","s1","sr","pp","<p class=""trial-stimulus"">The dogs | ____ | ____ | ________ | ___</p>","","","",""
"486"," ","html-keyboard-response","173","2.0.0","2669916","29","item","7","exp_item","s2","sr","pp","<p class=""trial-stimulus"">________ | that | ____ | ________ | ___</p>","","","",""
"640"," ","html-keyboard-response","174","2.0.0","2670557","29","item","7","exp_item","s3","sr","pp","<p class=""trial-stimulus"">________ | ____ | push | ________ | ___</p>","","","",""
"2470"," ","html-keyboard-response","175","2.0.0","2673027","29","item","7","exp_item","s4","sr","pp","<p class=""trial-stimulus"">________ | ____ | ____ | the cats | ___</p>","","","",""
"930"," ","html-keyboard-response","176","2.0.0","2673958","29","item","7","exp_item","s5","sr","pp","<p class=""trial-stimulus"">________ | ____ | ____ | ________ | cry</p>","<div class='container trial-question'>
      <h2 class='trial-question-header'>Who cries?</h2>
      <div>
        <div class='container'>
          <h2 class='trial-question-answer'>The dogs</h2>
          <h2 class='trial-question-key'>F</h2>
        </div>
        <div class='container'>
          <h2 class='trial-question-answer'>The cats</h2>
          <h2 class='trial-question-key'>J</h2>
        </div>
      </div>
    </div>","","",""
"2744","f","html-keyboard-response","177","2.0.0","2677214","29","question","7","exp_item","","sr","pp","<div class='container trial-question'>
      <h2 class='trial-question-header'>Who cries?</h2>
      <div>
        <div class='container'>
          <h2 class='trial-question-answer'>The dogs</h2>
          <h2 class='trial-question-key'>F</h2>
        </div>
        <div class='container'>
          <h2 class='trial-question-answer'>The cats</h2>
          <h2 class='trial-question-key'>J</h2>
        </div>
      </div>
    </div>","","f","f","1"
"538"," ","html-keyboard-response","178","2.0.0","2678267","29","item","7","exp_item","s0","sr","ss","<p class=""trial-stimulus"">_______ | ____ | ______ | _______ | _____</p>","","","",""
"456"," ","html-keyboard-response","179","2.0.0","2678724","29","item","7","exp_item","s1","sr","ss","<p class=""trial-stimulus"">The dog | ____ | ______ | _______ | _____</p>","","","",""
"383"," ","html-keyboard-response","180","2.0.0","2679108","29","item","7","exp_item","s2","sr","ss","<p class=""trial-stimulus"">_______ | that | ______ | _______ | _____</p>","","","",""
"544"," ","html-keyboard-response","181","2.0.0","2679652","29","item","7","exp_item","s3","sr","ss","<p class=""trial-stimulus"">_______ | ____ | pushes | _______ | _____</p>","","","",""
"471"," ","html-keyboard-response","182","2.0.0","2680123","29","item","7","exp_item","s4","sr","ss","<p class=""trial-stimulus"">_______ | ____ | ______ | the cat | _____</p>","","","",""
"680"," ","html-keyboard-response","183","2.0.0","2680803","29","item","7","exp_item","s5","sr","ss","<p class=""trial-stimulus"">_______ | ____ | ______ | _______ | cries</p>","false","","",""
"506"," ","html-keyboard-response","185","2.0.0","2681822","29","item","5","fill_item","s0","sr","ss","<p class=""trial-stimulus"">________ | ___ | _____ | _______ | _____</p>","","","",""
"574"," ","html-keyboard-response","186","2.0.0","2682396","29","item","5","fill_item","s1","sr","ss","<p class=""trial-stimulus"">The chef | ___ | _____ | _______ | _____</p>","","","",""
"567"," ","html-keyboard-response","187","2.0.0","2682963","29","item","5","fill_item","s2","sr","ss","<p class=""trial-stimulus"">________ | who | _____ | _______ | _____</p>","","","",""
"1072"," ","html-keyboard-response","188","2.0.0","2684035","29","item","5","fill_item","s3","sr","ss","<p class=""trial-stimulus"">________ | ___ | kicks | _______ | _____</p>","","","",""
"1689"," ","html-keyboard-response","189","2.0.0","2685725","29","item","5","fill_item","s4","sr","ss","<p class=""trial-stimulus"">________ | ___ | _____ | the box | _____</p>","","","",""
"694"," ","html-keyboard-response","190","2.0.0","2686419","29","item","5","fill_item","s5","sr","ss","<p class=""trial-stimulus"">________ | ___ | _____ | _______ | cries</p>","<div class='container trial-question'>
    <h2 class='trial-question-header'>Does the chef cry?</h2>
    <div>
      <div class='container'>
        <h2 class='trial-question-answer'>No</h2>
        <h2 class='trial-question-key'>F</h2>
      </div>
      <div class='container'>
        <h2 class='trial-question-answer'>Yes</h2>
        <h2 class='trial-question-key'>J</h2>
      </div>
    </div>
  </div>","","",""
"1609","j","html-keyboard-response","191","2.0.0","2688539","29","question","5","fill_item","","sr","ss","<div class='container trial-question'>
    <h2 class='trial-question-header'>Does the chef cry?</h2>
    <div>
      <div class='container'>
        <h2 class='trial-question-answer'>No</h2>
        <h2 class='trial-question-key'>F</h2>
      </div>
      <div class='container'>
        <h2 class='trial-question-answer'>Yes</h2>
        <h2 class='trial-question-key'>J</h2>
      </div>
    </div>
  </div>","","j","j","1"
"461"," ","html-keyboard-response","192","2.0.0","2689510","29","item","4","exp_item","s0","sr","pp","<p class=""trial-stimulus"">__________ | ____ | ______ | __________ | ___</p>","","","",""
"494"," ","html-keyboard-response","193","2.0.0","2690005","29","item","4","exp_item","s1","sr","pp","<p class=""trial-stimulus"">The zebras | ____ | ______ | __________ | ___</p>","","","",""
"1773"," ","html-keyboard-response","194","2.0.0","2691779","29","item","4","exp_item","s2","sr","pp","<p class=""trial-stimulus"">__________ | that | ______ | __________ | ___</p>","","","",""
"576"," ","html-keyboard-response","195","2.0.0","2692355","29","item","4","exp_item","s3","sr","pp","<p class=""trial-stimulus"">__________ | ____ | follow | __________ | ___</p>","","","",""
"1121"," ","html-keyboard-response","196","2.0.0","2693477","29","item","4","exp_item","s4","sr","pp","<p class=""trial-stimulus"">__________ | ____ | ______ | the horses | ___</p>","","","",""
"341"," ","html-keyboard-response","197","2.0.0","2693819","29","item","4","exp_item","s5","sr","pp","<p class=""trial-stimulus"">__________ | ____ | ______ | __________ | run</p>","false","","",""
"610"," ","html-keyboard-response","199","2.0.0","2694941","29","item","1","exp_item","s0","or","sp","<p class=""trial-stimulus"">_________ | ____ | __________ | _____ | _____</p>","","","",""
"366"," ","html-keyboard-response","200","2.0.0","2695309","29","item","1","exp_item","s1","or","sp","<p class=""trial-stimulus"">The horse | ____ | __________ | _____ | _____</p>","","","",""
"1814"," ","html-keyboard-response","201","2.0.0","2697123","29","item","1","exp_item","s2","or","sp","<p class=""trial-stimulus"">_________ | that | __________ | _____ | _____</p>","","","",""
"895"," ","html-keyboard-response","202","2.0.0","2698019","29","item","1","exp_item","s3","or","sp","<p class=""trial-stimulus"">_________ | ____ | the zebras | _____ | _____</p>","","","",""
"3776"," ","html-keyboard-response","203","2.0.0","2701795","29","item","1","exp_item","s4","or","sp","<p class=""trial-stimulus"">_________ | ____ | __________ | chase | _____</p>","","","",""
"704"," ","html-keyboard-response","204","2.0.0","2702500","29","item","1","exp_item","s5","or","sp","<p class=""trial-stimulus"">_________ | ____ | __________ | _____ | falls</p>","false","","",""
"441"," ","html-keyboard-response","206","2.0.0","2703453","29","item","8","exp_item","s0","sr","ss","<p class=""trial-stimulus"">_______ | ____ | ____ | _______ | ______</p>","","","",""
"381"," ","html-keyboard-response","207","2.0.0","2703835","29","item","8","exp_item","s1","sr","ss","<p class=""trial-stimulus"">The cat | ____ | ____ | _______ | ______</p>","","","",""
"425"," ","html-keyboard-response","208","2.0.0","2704261","29","item","8","exp_item","s2","sr","ss","<p class=""trial-stimulus"">_______ | that | ____ | _______ | ______</p>","","","",""
"423"," ","html-keyboard-response","209","2.0.0","2704685","29","item","8","exp_item","s3","sr","ss","<p class=""trial-stimulus"">_______ | ____ | hugs | _______ | ______</p>","","","",""
"405"," ","html-keyboard-response","210","2.0.0","2705091","29","item","8","exp_item","s4","sr","ss","<p class=""trial-stimulus"">_______ | ____ | ____ | the dog | ______</p>","","","",""
"3512"," ","html-keyboard-response","211","2.0.0","2708604","29","item","8","exp_item","s5","sr","ss","<p class=""trial-stimulus"">_______ | ____ | ____ | _______ | smiles</p>","false","","",""
"715"," ","html-keyboard-response","213","2.0.0","2709829","29","item","1","exp_item","s0","or","pp","<p class=""trial-stimulus"">__________ | ____ | __________ | _____ | ____</p>","","","",""
"638"," ","html-keyboard-response","214","2.0.0","2710468","29","item","1","exp_item","s1","or","pp","<p class=""trial-stimulus"">The horses | ____ | __________ | _____ | ____</p>","","","",""
"496"," ","html-keyboard-response","215","2.0.0","2710965","29","item","1","exp_item","s2","or","pp","<p class=""trial-stimulus"">__________ | that | __________ | _____ | ____</p>","","","",""
"654"," ","html-keyboard-response","216","2.0.0","2711620","29","item","1","exp_item","s3","or","pp","<p class=""trial-stimulus"">__________ | ____ | the zebras | _____ | ____</p>","","","",""
"456"," ","html-keyboard-response","217","2.0.0","2712077","29","item","1","exp_item","s4","or","pp","<p class=""trial-stimulus"">__________ | ____ | __________ | chase | ____</p>","","","",""
"879"," ","html-keyboard-response","218","2.0.0","2712957","29","item","1","exp_item","s5","or","pp","<p class=""trial-stimulus"">__________ | ____ | __________ | _____ | fall</p>","<div class='container trial-question'>
    <h2 class='trial-question-header'>Who falls?</h2>
    <div>
      <div class='container'>
        <h2 class='trial-question-answer'>The zebras</h2>
        <h2 class='trial-question-key'>F</h2>
      </div>
      <div class='container'>
        <h2 class='trial-question-answer'>The horses</h2>
        <h2 class='trial-question-key'>J</h2>
      </div>
    </div>
  </div>","","",""
"1898","j","html-keyboard-response","219","2.0.0","2715365","29","question","1","exp_item","","or","pp","<div class='container trial-question'>
    <h2 class='trial-question-header'>Who falls?</h2>
    <div>
      <div class='container'>
        <h2 class='trial-question-answer'>The zebras</h2>
        <h2 class='trial-question-key'>F</h2>
      </div>
      <div class='container'>
        <h2 class='trial-question-answer'>The horses</h2>
        <h2 class='trial-question-key'>J</h2>
      </div>
    </div>
  </div>","","j","j","1"
"341"," ","html-keyboard-response","220","2.0.0","2716219","29","item","14","fill_item","s0","sr","ss","<p class=""trial-stimulus"">_________ | ___ | ______ | __________ | _______</p>","","","",""
"384"," ","html-keyboard-response","221","2.0.0","2716604","29","item","14","fill_item","s1","sr","ss","<p class=""trial-stimulus"">The woman | ___ | ______ | __________ | _______</p>","","","",""
"321"," ","html-keyboard-response","222","2.0.0","2716925","29","item","14","fill_item","s2","sr","ss","<p class=""trial-stimulus"">_________ | who | ______ | __________ | _______</p>","","","",""
"264"," ","html-keyboard-response","223","2.0.0","2717190","29","item","14","fill_item","s3","sr","ss","<p class=""trial-stimulus"">_________ | ___ | throws | __________ | _______</p>","","","",""
"974"," ","html-keyboard-response","224","2.0.0","2718165","29","item","14","fill_item","s4","sr","ss","<p class=""trial-stimulus"">_________ | ___ | ______ | the letter | _______</p>","","","",""
"574"," ","html-keyboard-response","225","2.0.0","2718740","29","item","14","fill_item","s5","sr","ss","<p class=""trial-stimulus"">_________ | ___ | ______ | __________ | screams</p>","false","","",""
"600"," ","html-keyboard-response","227","2.0.0","2719851","29","item","1","exp_item","s0","or","ps","<p class=""trial-stimulus"">__________ | ____ | _________ | ______ | ____</p>","","","",""
"344"," ","html-keyboard-response","228","2.0.0","2720197","29","item","1","exp_item","s1","or","ps","<p class=""trial-stimulus"">The horses | ____ | _________ | ______ | ____</p>","","","",""
"566"," ","html-keyboard-response","229","2.0.0","2720763","29","item","1","exp_item","s2","or","ps","<p class=""trial-stimulus"">__________ | that | _________ | ______ | ____</p>","","","",""
"1241"," ","html-keyboard-response","230","2.0.0","2722005","29","item","1","exp_item","s3","or","ps","<p class=""trial-stimulus"">__________ | ____ | the zebra | ______ | ____</p>","","","",""
"701"," ","html-keyboard-response","231","2.0.0","2722707","29","item","1","exp_item","s4","or","ps","<p class=""trial-stimulus"">__________ | ____ | _________ | chases | ____</p>","","","",""
"1296"," ","html-keyboard-response","232","2.0.0","2724004","29","item","1","exp_item","s5","or","ps","<p class=""trial-stimulus"">__________ | ____ | _________ | ______ | fall</p>","false","","",""
"457"," ","html-keyboard-response","234","2.0.0","2724965","29","item","1","exp_item","s0","sr","pp","<p class=""trial-stimulus"">__________ | ____ | _____ | __________ | ____</p>","","","",""
"439"," ","html-keyboard-response","235","2.0.0","2725405","29","item","1","exp_item","s1","sr","pp","<p class=""trial-stimulus"">The horses | ____ | _____ | __________ | ____</p>","","","",""
"286"," ","html-keyboard-response","236","2.0.0","2725693","29","item","1","exp_item","s2","sr","pp","<p class=""trial-stimulus"">__________ | that | _____ | __________ | ____</p>","","","",""
"566"," ","html-keyboard-response","237","2.0.0","2726259","29","item","1","exp_item","s3","sr","pp","<p class=""trial-stimulus"">__________ | ____ | chase | __________ | ____</p>","","","",""
"976"," ","html-keyboard-response","238","2.0.0","2727236","29","item","1","exp_item","s4","sr","pp","<p class=""trial-stimulus"">__________ | ____ | _____ | the zebras | ____</p>","","","",""
"1167"," ","html-keyboard-response","239","2.0.0","2728405","29","item","1","exp_item","s5","sr","pp","<p class=""trial-stimulus"">__________ | ____ | _____ | __________ | fall</p>","false","","",""
"431"," ","html-keyboard-response","241","2.0.0","2729347","29","item","4","exp_item","s0","sr","ps","<p class=""trial-stimulus"">__________ | ____ | ______ | _________ | ___</p>","","","",""
"399"," ","html-keyboard-response","242","2.0.0","2729747","29","item","4","exp_item","s1","sr","ps","<p class=""trial-stimulus"">The zebras | ____ | ______ | _________ | ___</p>","","","",""
"352"," ","html-keyboard-response","243","2.0.0","2730099","29","item","4","exp_item","s2","sr","ps","<p class=""trial-stimulus"">__________ | that | ______ | _________ | ___</p>","","","",""
"401"," ","html-keyboard-response","244","2.0.0","2730501","29","item","4","exp_item","s3","sr","ps","<p class=""trial-stimulus"">__________ | ____ | follow | _________ | ___</p>","","","",""
"519"," ","html-keyboard-response","245","2.0.0","2731021","29","item","4","exp_item","s4","sr","ps","<p class=""trial-stimulus"">__________ | ____ | ______ | the horse | ___</p>","","","",""
"1014"," ","html-keyboard-response","246","2.0.0","2732035","29","item","4","exp_item","s5","sr","ps","<p class=""trial-stimulus"">__________ | ____ | ______ | _________ | run</p>","<div class='container trial-question'>
      <h2 class='trial-question-header'>Who runs?</h2>
      <div>
        <div class='container'>
          <h2 class='trial-question-answer'>The horse</h2>
          <h2 class='trial-question-key'>F</h2>
        </div>
        <div class='container'>
          <h2 class='trial-question-answer'>The zebras</h2>
          <h2 class='trial-question-key'>J</h2>
        </div>
      </div>
    </div>","","",""
"2621","j","html-keyboard-response","247","2.0.0","2735158","29","question","4","exp_item","","sr","ps","<div class='container trial-question'>
      <h2 class='trial-question-header'>Who runs?</h2>
      <div>
        <div class='container'>
          <h2 class='trial-question-answer'>The horse</h2>
          <h2 class='trial-question-key'>F</h2>
        </div>
        <div class='container'>
          <h2 class='trial-question-answer'>The zebras</h2>
          <h2 class='trial-question-key'>J</h2>
        </div>
      </div>
    </div>","","j","j","1"
"377"," ","html-keyboard-response","248","2.0.0","2736043","29","item","1","exp_item","s0","sr","ps","<p class=""trial-stimulus"">__________ | ____ | _____ | _________ | ____</p>","","","",""
"337"," ","html-keyboard-response","249","2.0.0","2736381","29","item","1","exp_item","s1","sr","ps","<p class=""trial-stimulus"">The horses | ____ | _____ | _________ | ____</p>","","","",""
"382"," ","html-keyboard-response","250","2.0.0","2736765","29","item","1","exp_item","s2","sr","ps","<p class=""trial-stimulus"">__________ | that | _____ | _________ | ____</p>","","","",""
"495"," ","html-keyboard-response","251","2.0.0","2737261","29","item","1","exp_item","s3","sr","ps","<p class=""trial-stimulus"">__________ | ____ | chase | _________ | ____</p>","","","",""
"1606"," ","html-keyboard-response","252","2.0.0","2738867","29","item","1","exp_item","s4","sr","ps","<p class=""trial-stimulus"">__________ | ____ | _____ | the zebra | ____</p>","","","",""
"1239"," ","html-keyboard-response","253","2.0.0","2740107","29","item","1","exp_item","s5","sr","ps","<p class=""trial-stimulus"">__________ | ____ | _____ | _________ | fall</p>","false","","",""
"492"," ","html-keyboard-response","255","2.0.0","2741108","29","item","7","exp_item","s0","sr","ps","<p class=""trial-stimulus"">________ | ____ | ____ | _______ | ___</p>","","","",""
"215"," ","html-keyboard-response","256","2.0.0","2741323","29","item","7","exp_item","s1","sr","ps","<p class=""trial-stimulus"">The dogs | ____ | ____ | _______ | ___</p>","","","",""
"1273"," ","html-keyboard-response","257","2.0.0","2742597","29","item","7","exp_item","s2","sr","ps","<p class=""trial-stimulus"">________ | that | ____ | _______ | ___</p>","","","",""
"861"," ","html-keyboard-response","258","2.0.0","2743459","29","item","7","exp_item","s3","sr","ps","<p class=""trial-stimulus"">________ | ____ | push | _______ | ___</p>","","","",""
"2113"," ","html-keyboard-response","259","2.0.0","2745573","29","item","7","exp_item","s4","sr","ps","<p class=""trial-stimulus"">________ | ____ | ____ | the cat | ___</p>","","","",""
"527"," ","html-keyboard-response","260","2.0.0","2746101","29","item","7","exp_item","s5","sr","ps","<p class=""trial-stimulus"">________ | ____ | ____ | _______ | cry</p>","false","","",""
"503"," ","html-keyboard-response","262","2.0.0","2747115","29","item","7","fill_item","s0","sr","ss","<p class=""trial-stimulus"">__________ | ___ | _____ | __________ | _____</p>","","","",""
"633"," ","html-keyboard-response","263","2.0.0","2747749","29","item","7","fill_item","s1","sr","ss","<p class=""trial-stimulus"">The singer | ___ | _____ | __________ | _____</p>","","","",""
"462"," ","html-keyboard-response","264","2.0.0","2748211","29","item","7","fill_item","s2","sr","ss","<p class=""trial-stimulus"">__________ | who | _____ | __________ | _____</p>","","","",""
"905"," ","html-keyboard-response","265","2.0.0","2749117","29","item","7","fill_item","s3","sr","ss","<p class=""trial-stimulus"">__________ | ___ | grabs | __________ | _____</p>","","","",""
"743"," ","html-keyboard-response","266","2.0.0","2749861","29","item","7","fill_item","s4","sr","ss","<p class=""trial-stimulus"">__________ | ___ | _____ | the guitar | _____</p>","","","",""
"735"," ","html-keyboard-response","267","2.0.0","2750597","29","item","7","fill_item","s5","sr","ss","<p class=""trial-stimulus"">__________ | ___ | _____ | __________ | cries</p>","false","","",""
"506"," ","html-keyboard-response","269","2.0.0","2751604","29","item","8","exp_item","s0","or","sp","<p class=""trial-stimulus"">_______ | ____ | ________ | ___ | ______</p>","","","",""
"455"," ","html-keyboard-response","270","2.0.0","2752060","29","item","8","exp_item","s1","or","sp","<p class=""trial-stimulus"">The cat | ____ | ________ | ___ | ______</p>","","","",""
"624"," ","html-keyboard-response","271","2.0.0","2752685","29","item","8","exp_item","s2","or","sp","<p class=""trial-stimulus"">_______ | that | ________ | ___ | ______</p>","","","",""
"2407"," ","html-keyboard-response","272","2.0.0","2755092","29","item","8","exp_item","s3","or","sp","<p class=""trial-stimulus"">_______ | ____ | the dogs | ___ | ______</p>","","","",""
"4239"," ","html-keyboard-response","273","2.0.0","2759331","29","item","8","exp_item","s4","or","sp","<p class=""trial-stimulus"">_______ | ____ | ________ | hug | ______</p>","","","",""
"912"," ","html-keyboard-response","274","2.0.0","2760244","29","item","8","exp_item","s5","or","sp","<p class=""trial-stimulus"">_______ | ____ | ________ | ___ | smiles</p>","false","","",""
"673"," ","html-keyboard-response","276","2.0.0","2761421","29","item","8","exp_item","s0","or","ps","<p class=""trial-stimulus"">________ | ____ | _______ | ____ | _____</p>","","","",""
"438"," ","html-keyboard-response","277","2.0.0","2761860","29","item","8","exp_item","s1","or","ps","<p class=""trial-stimulus"">The cats | ____ | _______ | ____ | _____</p>","","","",""
"393"," ","html-keyboard-response","278","2.0.0","2762253","29","item","8","exp_item","s2","or","ps","<p class=""trial-stimulus"">________ | that | _______ | ____ | _____</p>","","","",""
"517"," ","html-keyboard-response","279","2.0.0","2762771","29","item","8","exp_item","s3","or","ps","<p class=""trial-stimulus"">________ | ____ | the dog | ____ | _____</p>","","","",""
"696"," ","html-keyboard-response","280","2.0.0","2763467","29","item","8","exp_item","s4","or","ps","<p class=""trial-stimulus"">________ | ____ | _______ | hugs | _____</p>","","","",""
"696"," ","html-keyboard-response","281","2.0.0","2764164","29","item","8","exp_item","s5","or","ps","<p class=""trial-stimulus"">________ | ____ | _______ | ____ | smile</p>","<div class='container trial-question'>
      <h2 class='trial-question-header'>Who smiles?</h2>
      <div>
        <div class='container'>
          <h2 class='trial-question-answer'>The dog</h2>
          <h2 class='trial-question-key'>F</h2>
        </div>
        <div class='container'>
          <h2 class='trial-question-answer'>The cats</h2>
          <h2 class='trial-question-key'>J</h2>
        </div>
      </div>
    </div>","","",""
"1591","j","html-keyboard-response","282","2.0.0","2766259","29","question","8","exp_item","","or","ps","<div class='container trial-question'>
      <h2 class='trial-question-header'>Who smiles?</h2>
      <div>
        <div class='container'>
          <h2 class='trial-question-answer'>The dog</h2>
          <h2 class='trial-question-key'>F</h2>
        </div>
        <div class='container'>
          <h2 class='trial-question-answer'>The cats</h2>
          <h2 class='trial-question-key'>J</h2>
        </div>
      </div>
    </div>","","j","j","1"
"385"," ","html-keyboard-response","283","2.0.0","2767149","29","item","2","fill_item","s0","sr","ss","<p class=""trial-stimulus"">________ | ___ | _____ | _______ | _____</p>","","","",""
"526"," ","html-keyboard-response","284","2.0.0","2767677","29","item","2","fill_item","s1","sr","ss","<p class=""trial-stimulus"">The chef | ___ | _____ | _______ | _____</p>","","","",""
"487"," ","html-keyboard-response","285","2.0.0","2768165","29","item","2","fill_item","s2","sr","ss","<p class=""trial-stimulus"">________ | who | _____ | _______ | _____</p>","","","",""
"1239"," ","html-keyboard-response","286","2.0.0","2769405","29","item","2","fill_item","s3","sr","ss","<p class=""trial-stimulus"">________ | ___ | grabs | _______ | _____</p>","","","",""
"357"," ","html-keyboard-response","287","2.0.0","2769763","29","item","2","fill_item","s4","sr","ss","<p class=""trial-stimulus"">________ | ___ | _____ | the box | _____</p>","","","",""
"585"," ","html-keyboard-response","288","2.0.0","2770349","29","item","2","fill_item","s5","sr","ss","<p class=""trial-stimulus"">________ | ___ | _____ | _______ | jumps</p>","<div class='container trial-question'>
      <h2 class='trial-question-header'>Does the chef scream?</h2>
      <div>
        <div class='container'>
          <h2 class='trial-question-answer'>No</h2>
          <h2 class='trial-question-key'>F</h2>
        </div>
        <div class='container'>
          <h2 class='trial-question-answer'>Yes</h2>
          <h2 class='trial-question-key'>J</h2>
        </div>
      </div>
    </div>","","",""
"2084","f","html-keyboard-response","289","2.0.0","2772948","29","question","2","fill_item","","sr","ss","<div class='container trial-question'>
      <h2 class='trial-question-header'>Does the chef scream?</h2>
      <div>
        <div class='container'>
          <h2 class='trial-question-answer'>No</h2>
          <h2 class='trial-question-key'>F</h2>
        </div>
        <div class='container'>
          <h2 class='trial-question-answer'>Yes</h2>
          <h2 class='trial-question-key'>J</h2>
        </div>
      </div>
    </div>","","f","f","1"
"481"," ","html-keyboard-response","290","2.0.0","2773933","29","item","11","fill_item","s0","sr","ss","<p class=""trial-stimulus"">_________ | ___ | ______ | __________ | ______</p>","","","",""
"391"," ","html-keyboard-response","291","2.0.0","2774325","29","item","11","fill_item","s1","sr","ss","<p class=""trial-stimulus"">The woman | ___ | ______ | __________ | ______</p>","","","",""
"366"," ","html-keyboard-response","292","2.0.0","2774691","29","item","11","fill_item","s2","sr","ss","<p class=""trial-stimulus"">_________ | who | ______ | __________ | ______</p>","","","",""
"1184"," ","html-keyboard-response","293","2.0.0","2775875","29","item","11","fill_item","s3","sr","ss","<p class=""trial-stimulus"">_________ | ___ | writes | __________ | ______</p>","","","",""
"583"," ","html-keyboard-response","294","2.0.0","2776459","29","item","11","fill_item","s4","sr","ss","<p class=""trial-stimulus"">_________ | ___ | ______ | the letter | ______</p>","","","",""
"1560"," ","html-keyboard-response","295","2.0.0","2778019","29","item","11","fill_item","s5","sr","ss","<p class=""trial-stimulus"">_________ | ___ | ______ | __________ | smiles</p>","false","","",""
"467"," ","html-keyboard-response","297","2.0.0","2778996","29","item","4","exp_item","s0","sr","sp","<p class=""trial-stimulus"">_________ | ____ | _______ | __________ | ____</p>","","","",""
"430"," ","html-keyboard-response","298","2.0.0","2779427","29","item","4","exp_item","s1","sr","sp","<p class=""trial-stimulus"">The zebra | ____ | _______ | __________ | ____</p>","","","",""
"408"," ","html-keyboard-response","299","2.0.0","2779836","29","item","4","exp_item","s2","sr","sp","<p class=""trial-stimulus"">_________ | that | _______ | __________ | ____</p>","","","",""
"496"," ","html-keyboard-response","300","2.0.0","2780333","29","item","4","exp_item","s3","sr","sp","<p class=""trial-stimulus"">_________ | ____ | follows | __________ | ____</p>","","","",""
"774"," ","html-keyboard-response","301","2.0.0","2781109","29","item","4","exp_item","s4","sr","sp","<p class=""trial-stimulus"">_________ | ____ | _______ | the horses | ____</p>","","","",""
"719"," ","html-keyboard-response","302","2.0.0","2781829","29","item","4","exp_item","s5","sr","sp","<p class=""trial-stimulus"">_________ | ____ | _______ | __________ | runs</p>","false","","",""
"408"," ","html-keyboard-response","304","2.0.0","2782741","29","item","7","exp_item","s0","or","ps","<p class=""trial-stimulus"">________ | ____ | _______ | ______ | ___</p>","","","",""
"503"," ","html-keyboard-response","305","2.0.0","2783244","29","item","7","exp_item","s1","or","ps","<p class=""trial-stimulus"">The dogs | ____ | _______ | ______ | ___</p>","","","",""
"398"," ","html-keyboard-response","306","2.0.0","2783643","29","item","7","exp_item","s2","or","ps","<p class=""trial-stimulus"">________ | that | _______ | ______ | ___</p>","","","",""
"656"," ","html-keyboard-response","307","2.0.0","2784299","29","item","7","exp_item","s3","or","ps","<p class=""trial-stimulus"">________ | ____ | the cat | ______ | ___</p>","","","",""
"2320"," ","html-keyboard-response","308","2.0.0","2786619","29","item","7","exp_item","s4","or","ps","<p class=""trial-stimulus"">________ | ____ | _______ | pushes | ___</p>","","","",""
"816"," ","html-keyboard-response","309","2.0.0","2787435","29","item","7","exp_item","s5","or","ps","<p class=""trial-stimulus"">________ | ____ | _______ | ______ | cry</p>","false","","",""
"459"," ","html-keyboard-response","311","2.0.0","2788405","29","item","1","exp_item","s0","sr","ss","<p class=""trial-stimulus"">_________ | ____ | ______ | _________ | _____</p>","","","",""
"405"," ","html-keyboard-response","312","2.0.0","2788811","29","item","1","exp_item","s1","sr","ss","<p class=""trial-stimulus"">The horse | ____ | ______ | _________ | _____</p>","","","",""
"296"," ","html-keyboard-response","313","2.0.0","2789108","29","item","1","exp_item","s2","sr","ss","<p class=""trial-stimulus"">_________ | that | ______ | _________ | _____</p>","","","",""
"383"," ","html-keyboard-response","314","2.0.0","2789491","29","item","1","exp_item","s3","sr","ss","<p class=""trial-stimulus"">_________ | ____ | chases | _________ | _____</p>","","","",""
"1129"," ","html-keyboard-response","315","2.0.0","2790621","29","item","1","exp_item","s4","sr","ss","<p class=""trial-stimulus"">_________ | ____ | ______ | the zebra | _____</p>","","","",""
"527"," ","html-keyboard-response","316","2.0.0","2791149","29","item","1","exp_item","s5","sr","ss","<p class=""trial-stimulus"">_________ | ____ | ______ | _________ | falls</p>","<div class='container trial-question'>
      <h2 class='trial-question-header'>Who falls?</h2>
      <div>
        <div class='container'>
          <h2 class='trial-question-answer'>The zebra</h2>
          <h2 class='trial-question-key'>F</h2>
        </div>
        <div class='container'>
          <h2 class='trial-question-answer'>The horse</h2>
          <h2 class='trial-question-key'>J</h2>
        </div>
      </div>
    </div>","","",""
"4011","j","html-keyboard-response","317","2.0.0","2795675","29","question","1","exp_item","","sr","ss","<div class='container trial-question'>
      <h2 class='trial-question-header'>Who falls?</h2>
      <div>
        <div class='container'>
          <h2 class='trial-question-answer'>The zebra</h2>
          <h2 class='trial-question-key'>F</h2>
        </div>
        <div class='container'>
          <h2 class='trial-question-answer'>The horse</h2>
          <h2 class='trial-question-key'>J</h2>
        </div>
      </div>
    </div>","","j","j","1"
"417"," ","html-keyboard-response","318","2.0.0","2796597","29","item","6","fill_item","s0","sr","ss","<p class=""trial-stimulus"">__________ | ___ | _____ | __________ | _____</p>","","","",""
"501"," ","html-keyboard-response","319","2.0.0","2797099","29","item","6","fill_item","s1","sr","ss","<p class=""trial-stimulus"">The singer | ___ | _____ | __________ | _____</p>","","","",""
"544"," ","html-keyboard-response","320","2.0.0","2797643","29","item","6","fill_item","s2","sr","ss","<p class=""trial-stimulus"">__________ | who | _____ | __________ | _____</p>","","","",""
"1424"," ","html-keyboard-response","321","2.0.0","2799067","29","item","6","fill_item","s3","sr","ss","<p class=""trial-stimulus"">__________ | ___ | plays | __________ | _____</p>","","","",""
"681"," ","html-keyboard-response","322","2.0.0","2799749","29","item","6","fill_item","s4","sr","ss","<p class=""trial-stimulus"">__________ | ___ | _____ | the guitar | _____</p>","","","",""
"1334"," ","html-keyboard-response","323","2.0.0","2801085","29","item","6","fill_item","s5","sr","ss","<p class=""trial-stimulus"">__________ | ___ | _____ | __________ | sings</p>","false","","",""
"407"," ","html-keyboard-response","325","2.0.0","2801995","29","item","4","exp_item","s0","or","ps","<p class=""trial-stimulus"">__________ | ____ | _________ | _______ | ___</p>","","","",""
"377"," ","html-keyboard-response","326","2.0.0","2802373","29","item","4","exp_item","s1","or","ps","<p class=""trial-stimulus"">The zebras | ____ | _________ | _______ | ___</p>","","","",""
"318"," ","html-keyboard-response","327","2.0.0","2802691","29","item","4","exp_item","s2","or","ps","<p class=""trial-stimulus"">__________ | that | _________ | _______ | ___</p>","","","",""
"607"," ","html-keyboard-response","328","2.0.0","2803299","29","item","4","exp_item","s3","or","ps","<p class=""trial-stimulus"">__________ | ____ | the horse | _______ | ___</p>","","","",""
"3105"," ","html-keyboard-response","329","2.0.0","2806404","29","item","4","exp_item","s4","or","ps","<p class=""trial-stimulus"">__________ | ____ | _________ | follows | ___</p>","","","",""
"2616"," ","html-keyboard-response","330","2.0.0","2809021","29","item","4","exp_item","s5","or","ps","<p class=""trial-stimulus"">__________ | ____ | _________ | _______ | run</p>","false","","",""
"719"," ","html-keyboard-response","332","2.0.0","2810253","29","item","7","exp_item","s0","or","sp","<p class=""trial-stimulus"">_______ | ____ | ________ | ____ | _____</p>","","","",""
"509"," ","html-keyboard-response","333","2.0.0","2810763","29","item","7","exp_item","s1","or","sp","<p class=""trial-stimulus"">The dog | ____ | ________ | ____ | _____</p>","","","",""
"511"," ","html-keyboard-response","334","2.0.0","2811275","29","item","7","exp_item","s2","or","sp","<p class=""trial-stimulus"">_______ | that | ________ | ____ | _____</p>","","","",""
"687"," ","html-keyboard-response","335","2.0.0","2811963","29","item","7","exp_item","s3","or","sp","<p class=""trial-stimulus"">_______ | ____ | the cats | ____ | _____</p>","","","",""
"2464"," ","html-keyboard-response","336","2.0.0","2814427","29","item","7","exp_item","s4","or","sp","<p class=""trial-stimulus"">_______ | ____ | ________ | push | _____</p>","","","",""
"2992"," ","html-keyboard-response","337","2.0.0","2817421","29","item","7","exp_item","s5","or","sp","<p class=""trial-stimulus"">_______ | ____ | ________ | ____ | cries</p>","false","","",""
"630"," ","html-keyboard-response","339","2.0.0","2818556","29","item","8","exp_item","s0","sr","sp","<p class=""trial-stimulus"">_______ | ____ | ____ | ________ | ______</p>","","","",""
"1015"," ","html-keyboard-response","340","2.0.0","2819571","29","item","8","exp_item","s1","sr","sp","<p class=""trial-stimulus"">The cat | ____ | ____ | ________ | ______</p>","","","",""
"1936"," ","html-keyboard-response","341","2.0.0","2821508","29","item","8","exp_item","s2","sr","sp","<p class=""trial-stimulus"">_______ | that | ____ | ________ | ______</p>","","","",""
"511"," ","html-keyboard-response","342","2.0.0","2822019","29","item","8","exp_item","s3","sr","sp","<p class=""trial-stimulus"">_______ | ____ | hugs | ________ | ______</p>","","","",""
"1768"," ","html-keyboard-response","343","2.0.0","2823787","29","item","8","exp_item","s4","sr","sp","<p class=""trial-stimulus"">_______ | ____ | ____ | the dogs | ______</p>","","","",""
"512"," ","html-keyboard-response","344","2.0.0","2824300","29","item","8","exp_item","s5","sr","sp","<p class=""trial-stimulus"">_______ | ____ | ____ | ________ | smiles</p>","<div class='container trial-question'>
      <h2 class='trial-question-header'>Who smiles?</h2>
      <div>
        <div class='container'>
          <h2 class='trial-question-answer'>The cat</h2>
          <h2 class='trial-question-key'>F</h2>
        </div>
        <div class='container'>
          <h2 class='trial-question-answer'>The dogs</h2>
          <h2 class='trial-question-key'>J</h2>
        </div>
      </div>
    </div>","","",""
"2497","f","html-keyboard-response","345","2.0.0","2827299","29","question","8","exp_item","","sr","sp","<div class='container trial-question'>
      <h2 class='trial-question-header'>Who smiles?</h2>
      <div>
        <div class='container'>
          <h2 class='trial-question-answer'>The cat</h2>
          <h2 class='trial-question-key'>F</h2>
        </div>
        <div class='container'>
          <h2 class='trial-question-answer'>The dogs</h2>
          <h2 class='trial-question-key'>J</h2>
        </div>
      </div>
    </div>","","f","f","1"
