"rt","response","trial_type","trial_index","plugin_version","time_elapsed","part_id","task","item_number","item_type","segment","clause_type","number","stimulus","question","correct_answer","part_answer","correct"
"891763","{""part_id"":""34""}","survey-html-form","0","2.0.0","891767","34","","","","","","","","","","",""
"3701"," ","html-keyboard-response","2","2.0.0","959558","34","item","null","pr_item","s0","sr","ss","<p class=""trial-stimulus"">_______ | ____ | _______ | _______ | ____</p>","","","",""
"535"," ","html-keyboard-response","3","2.0.0","960093","34","item","null","pr_item","s1","sr","ss","<p class=""trial-stimulus"">The cat | ____ | _______ | _______ | ____</p>","","","",""
"399"," ","html-keyboard-response","4","2.0.0","960493","34","item","null","pr_item","s2","sr","ss","<p class=""trial-stimulus"">_______ | that | _______ | _______ | ____</p>","","","",""
"607"," ","html-keyboard-response","5","2.0.0","961101","34","item","null","pr_item","s3","sr","ss","<p class=""trial-stimulus"">_______ | ____ | watches | _______ | ____</p>","","","",""
"439"," ","html-keyboard-response","6","2.0.0","961541","34","item","null","pr_item","s4","sr","ss","<p class=""trial-stimulus"">_______ | ____ | _______ | the dog | ____</p>","","","",""
"2040"," ","html-keyboard-response","7","2.0.0","963582","34","item","null","pr_item","s5","sr","ss","<p class=""trial-stimulus"">_______ | ____ | _______ | _______ | eats</p>","false","","",""
"2629"," ","html-keyboard-response","9","2.0.0","966717","34","item","null","pr_item","s0","or","ss","<p class=""trial-stimulus"">_________ | ____ | _________ | _____ | ______</p>","","","",""
"839"," ","html-keyboard-response","10","2.0.0","967557","34","item","null","pr_item","s1","or","ss","<p class=""trial-stimulus"">The horse | ____ | _________ | _____ | ______</p>","","","",""
"495"," ","html-keyboard-response","11","2.0.0","968053","34","item","null","pr_item","s2","or","ss","<p class=""trial-stimulus"">_________ | that | _________ | _____ | ______</p>","","","",""
"927"," ","html-keyboard-response","12","2.0.0","968982","34","item","null","pr_item","s3","or","ss","<p class=""trial-stimulus"">_________ | ____ | the zebra | _____ | ______</p>","","","",""
"639"," ","html-keyboard-response","13","2.0.0","969621","34","item","null","pr_item","s4","or","ss","<p class=""trial-stimulus"">_________ | ____ | _________ | kicks | ______</p>","","","",""
"2808"," ","html-keyboard-response","14","2.0.0","972429","34","item","null","pr_item","s5","or","ss","<p class=""trial-stimulus"">_________ | ____ | _________ | _____ | laughs</p>","<div class='container trial-question'>
            <h2 class='trial-question-header'>Who laughs?</h2>
            <div>
              <div class='container'>
                <h2 class='trial-question-answer'>The zebra</h2>
                <h2 class='trial-question-key'>F</h2>
              </div>
              <div class='container'>
                <h2 class='trial-question-answer'>The horse</h2>
                <h2 class='trial-question-key'>J</h2>
              </div>
            </div>
          </div>","","",""
"8102","j","html-keyboard-response","15","2.0.0","981038","34","question","null","pr_item","","or","ss","<div class='container trial-question'>
            <h2 class='trial-question-header'>Who laughs?</h2>
            <div>
              <div class='container'>
                <h2 class='trial-question-answer'>The zebra</h2>
                <h2 class='trial-question-key'>F</h2>
              </div>
              <div class='container'>
                <h2 class='trial-question-answer'>The horse</h2>
                <h2 class='trial-question-key'>J</h2>
              </div>
            </div>
          </div>","","j","j","1"
"2072"," ","html-keyboard-response","17","2.0.0","1020773","34","item","7","fill_item","s0","sr","ss","<p class=""trial-stimulus"">__________ | ___ | _____ | __________ | _____</p>","","","",""
"1056"," ","html-keyboard-response","18","2.0.0","1021829","34","item","7","fill_item","s1","sr","ss","<p class=""trial-stimulus"">The singer | ___ | _____ | __________ | _____</p>","","","",""
"544"," ","html-keyboard-response","19","2.0.0","1022373","34","item","7","fill_item","s2","sr","ss","<p class=""trial-stimulus"">__________ | who | _____ | __________ | _____</p>","","","",""
"527"," ","html-keyboard-response","20","2.0.0","1022901","34","item","7","fill_item","s3","sr","ss","<p class=""trial-stimulus"">__________ | ___ | grabs | __________ | _____</p>","","","",""
"680"," ","html-keyboard-response","21","2.0.0","1023581","34","item","7","fill_item","s4","sr","ss","<p class=""trial-stimulus"">__________ | ___ | _____ | the guitar | _____</p>","","","",""
"4904"," ","html-keyboard-response","22","2.0.0","1028485","34","item","7","fill_item","s5","sr","ss","<p class=""trial-stimulus"">__________ | ___ | _____ | __________ | cries</p>","false","","",""
"1409"," ","html-keyboard-response","24","2.0.0","1030397","34","item","7","exp_item","s0","sr","ss","<p class=""trial-stimulus"">_______ | ____ | ______ | _______ | _____</p>","","","",""
"576"," ","html-keyboard-response","25","2.0.0","1030973","34","item","7","exp_item","s1","sr","ss","<p class=""trial-stimulus"">The dog | ____ | ______ | _______ | _____</p>","","","",""
"623"," ","html-keyboard-response","26","2.0.0","1031597","34","item","7","exp_item","s2","sr","ss","<p class=""trial-stimulus"">_______ | that | ______ | _______ | _____</p>","","","",""
"679"," ","html-keyboard-response","27","2.0.0","1032277","34","item","7","exp_item","s3","sr","ss","<p class=""trial-stimulus"">_______ | ____ | pushes | _______ | _____</p>","","","",""
"640"," ","html-keyboard-response","28","2.0.0","1032917","34","item","7","exp_item","s4","sr","ss","<p class=""trial-stimulus"">_______ | ____ | ______ | the cat | _____</p>","","","",""
"1399"," ","html-keyboard-response","29","2.0.0","1034317","34","item","7","exp_item","s5","sr","ss","<p class=""trial-stimulus"">_______ | ____ | ______ | _______ | cries</p>","false","","",""
"3257"," ","html-keyboard-response","31","2.0.0","1038077","34","item","7","exp_item","s0","sr","pp","<p class=""trial-stimulus"">________ | ____ | ____ | ________ | ___</p>","","","",""
"471"," ","html-keyboard-response","32","2.0.0","1038549","34","item","7","exp_item","s1","sr","pp","<p class=""trial-stimulus"">The dogs | ____ | ____ | ________ | ___</p>","","","",""
"471"," ","html-keyboard-response","33","2.0.0","1039021","34","item","7","exp_item","s2","sr","pp","<p class=""trial-stimulus"">________ | that | ____ | ________ | ___</p>","","","",""
"400"," ","html-keyboard-response","34","2.0.0","1039421","34","item","7","exp_item","s3","sr","pp","<p class=""trial-stimulus"">________ | ____ | push | ________ | ___</p>","","","",""
"759"," ","html-keyboard-response","35","2.0.0","1040181","34","item","7","exp_item","s4","sr","pp","<p class=""trial-stimulus"">________ | ____ | ____ | the cats | ___</p>","","","",""
"712"," ","html-keyboard-response","36","2.0.0","1040893","34","item","7","exp_item","s5","sr","pp","<p class=""trial-stimulus"">________ | ____ | ____ | ________ | cry</p>","<div class='container trial-question'>
      <h2 class='trial-question-header'>Who cries?</h2>
      <div>
        <div class='container'>
          <h2 class='trial-question-answer'>The dogs</h2>
          <h2 class='trial-question-key'>F</h2>
        </div>
        <div class='container'>
          <h2 class='trial-question-answer'>The cats</h2>
          <h2 class='trial-question-key'>J</h2>
        </div>
      </div>
    </div>","","",""
"3659","f","html-keyboard-response","37","2.0.0","1045061","34","question","7","exp_item","","sr","pp","<div class='container trial-question'>
      <h2 class='trial-question-header'>Who cries?</h2>
      <div>
        <div class='container'>
          <h2 class='trial-question-answer'>The dogs</h2>
          <h2 class='trial-question-key'>F</h2>
        </div>
        <div class='container'>
          <h2 class='trial-question-answer'>The cats</h2>
          <h2 class='trial-question-key'>J</h2>
        </div>
      </div>
    </div>","","f","f","1"
"1842"," ","html-keyboard-response","38","2.0.0","1047413","34","item","1","exp_item","s0","sr","ss","<p class=""trial-stimulus"">_________ | ____ | ______ | _________ | _____</p>","","","",""
"759"," ","html-keyboard-response","39","2.0.0","1048173","34","item","1","exp_item","s1","sr","ss","<p class=""trial-stimulus"">The horse | ____ | ______ | _________ | _____</p>","","","",""
"4952"," ","html-keyboard-response","40","2.0.0","1053125","34","item","1","exp_item","s2","sr","ss","<p class=""trial-stimulus"">_________ | that | ______ | _________ | _____</p>","","","",""
"1608"," ","html-keyboard-response","41","2.0.0","1054733","34","item","1","exp_item","s3","sr","ss","<p class=""trial-stimulus"">_________ | ____ | chases | _________ | _____</p>","","","",""
"975"," ","html-keyboard-response","42","2.0.0","1055709","34","item","1","exp_item","s4","sr","ss","<p class=""trial-stimulus"">_________ | ____ | ______ | the zebra | _____</p>","","","",""
"2095"," ","html-keyboard-response","43","2.0.0","1057805","34","item","1","exp_item","s5","sr","ss","<p class=""trial-stimulus"">_________ | ____ | ______ | _________ | falls</p>","<div class='container trial-question'>
      <h2 class='trial-question-header'>Who falls?</h2>
      <div>
        <div class='container'>
          <h2 class='trial-question-answer'>The zebra</h2>
          <h2 class='trial-question-key'>F</h2>
        </div>
        <div class='container'>
          <h2 class='trial-question-answer'>The horse</h2>
          <h2 class='trial-question-key'>J</h2>
        </div>
      </div>
    </div>","","",""
"3157","j","html-keyboard-response","44","2.0.0","1061477","34","question","1","exp_item","","sr","ss","<div class='container trial-question'>
      <h2 class='trial-question-header'>Who falls?</h2>
      <div>
        <div class='container'>
          <h2 class='trial-question-answer'>The zebra</h2>
          <h2 class='trial-question-key'>F</h2>
        </div>
        <div class='container'>
          <h2 class='trial-question-answer'>The horse</h2>
          <h2 class='trial-question-key'>J</h2>
        </div>
      </div>
    </div>","","j","j","1"
"1955"," ","html-keyboard-response","45","2.0.0","1063941","34","item","1","exp_item","s0","sr","pp","<p class=""trial-stimulus"">__________ | ____ | _____ | __________ | ____</p>","","","",""
"599"," ","html-keyboard-response","46","2.0.0","1064541","34","item","1","exp_item","s1","sr","pp","<p class=""trial-stimulus"">The horses | ____ | _____ | __________ | ____</p>","","","",""
"527"," ","html-keyboard-response","47","2.0.0","1065069","34","item","1","exp_item","s2","sr","pp","<p class=""trial-stimulus"">__________ | that | _____ | __________ | ____</p>","","","",""
"456"," ","html-keyboard-response","48","2.0.0","1065525","34","item","1","exp_item","s3","sr","pp","<p class=""trial-stimulus"">__________ | ____ | chase | __________ | ____</p>","","","",""
"687"," ","html-keyboard-response","49","2.0.0","1066213","34","item","1","exp_item","s4","sr","pp","<p class=""trial-stimulus"">__________ | ____ | _____ | the zebras | ____</p>","","","",""
"951"," ","html-keyboard-response","50","2.0.0","1067165","34","item","1","exp_item","s5","sr","pp","<p class=""trial-stimulus"">__________ | ____ | _____ | __________ | fall</p>","false","","",""
"2887"," ","html-keyboard-response","52","2.0.0","1070557","34","item","7","exp_item","s0","or","pp","<p class=""trial-stimulus"">________ | ____ | ________ | ____ | ___</p>","","","",""
"424"," ","html-keyboard-response","53","2.0.0","1070981","34","item","7","exp_item","s1","or","pp","<p class=""trial-stimulus"">The dogs | ____ | ________ | ____ | ___</p>","","","",""
"407"," ","html-keyboard-response","54","2.0.0","1071389","34","item","7","exp_item","s2","or","pp","<p class=""trial-stimulus"">________ | that | ________ | ____ | ___</p>","","","",""
"952"," ","html-keyboard-response","55","2.0.0","1072341","34","item","7","exp_item","s3","or","pp","<p class=""trial-stimulus"">________ | ____ | the cats | ____ | ___</p>","","","",""
"2767"," ","html-keyboard-response","56","2.0.0","1075109","34","item","7","exp_item","s4","or","pp","<p class=""trial-stimulus"">________ | ____ | ________ | push | ___</p>","","","",""
"4199"," ","html-keyboard-response","57","2.0.0","1079309","34","item","7","exp_item","s5","or","pp","<p class=""trial-stimulus"">________ | ____ | ________ | ____ | cry</p>","false","","",""
"5937"," ","html-keyboard-response","59","2.0.0","1085757","34","item","4","exp_item","s0","sr","sp","<p class=""trial-stimulus"">_________ | ____ | _______ | __________ | ____</p>","","","",""
"528"," ","html-keyboard-response","60","2.0.0","1086285","34","item","4","exp_item","s1","sr","sp","<p class=""trial-stimulus"">The zebra | ____ | _______ | __________ | ____</p>","","","",""
"384"," ","html-keyboard-response","61","2.0.0","1086669","34","item","4","exp_item","s2","sr","sp","<p class=""trial-stimulus"">_________ | that | _______ | __________ | ____</p>","","","",""
"463"," ","html-keyboard-response","62","2.0.0","1087133","34","item","4","exp_item","s3","sr","sp","<p class=""trial-stimulus"">_________ | ____ | follows | __________ | ____</p>","","","",""
"2520"," ","html-keyboard-response","63","2.0.0","1089653","34","item","4","exp_item","s4","sr","sp","<p class=""trial-stimulus"">_________ | ____ | _______ | the horses | ____</p>","","","",""
"735"," ","html-keyboard-response","64","2.0.0","1090389","34","item","4","exp_item","s5","sr","sp","<p class=""trial-stimulus"">_________ | ____ | _______ | __________ | runs</p>","false","","",""
"2277"," ","html-keyboard-response","66","2.0.0","1093181","34","item","7","exp_item","s0","or","sp","<p class=""trial-stimulus"">_______ | ____ | ________ | ____ | _____</p>","","","",""
"911"," ","html-keyboard-response","67","2.0.0","1094093","34","item","7","exp_item","s1","or","sp","<p class=""trial-stimulus"">The dog | ____ | ________ | ____ | _____</p>","","","",""
"6096"," ","html-keyboard-response","68","2.0.0","1100189","34","item","7","exp_item","s2","or","sp","<p class=""trial-stimulus"">_______ | that | ________ | ____ | _____</p>","","","",""
"1975"," ","html-keyboard-response","69","2.0.0","1102165","34","item","7","exp_item","s3","or","sp","<p class=""trial-stimulus"">_______ | ____ | the cats | ____ | _____</p>","","","",""
"584"," ","html-keyboard-response","70","2.0.0","1102750","34","item","7","exp_item","s4","or","sp","<p class=""trial-stimulus"">_______ | ____ | ________ | push | _____</p>","","","",""
"1190"," ","html-keyboard-response","71","2.0.0","1103941","34","item","7","exp_item","s5","or","sp","<p class=""trial-stimulus"">_______ | ____ | ________ | ____ | cries</p>","false","","",""
"7184"," ","html-keyboard-response","73","2.0.0","1111637","34","item","7","exp_item","s0","or","ss","<p class=""trial-stimulus"">_______ | ____ | _______ | ______ | _____</p>","","","",""
"799"," ","html-keyboard-response","74","2.0.0","1112437","34","item","7","exp_item","s1","or","ss","<p class=""trial-stimulus"">The dog | ____ | _______ | ______ | _____</p>","","","",""
"847"," ","html-keyboard-response","75","2.0.0","1113285","34","item","7","exp_item","s2","or","ss","<p class=""trial-stimulus"">_______ | that | _______ | ______ | _____</p>","","","",""
"1184"," ","html-keyboard-response","76","2.0.0","1114469","34","item","7","exp_item","s3","or","ss","<p class=""trial-stimulus"">_______ | ____ | the cat | ______ | _____</p>","","","",""
"1047"," ","html-keyboard-response","77","2.0.0","1115517","34","item","7","exp_item","s4","or","ss","<p class=""trial-stimulus"">_______ | ____ | _______ | pushes | _____</p>","","","",""
"1960"," ","html-keyboard-response","78","2.0.0","1117477","34","item","7","exp_item","s5","or","ss","<p class=""trial-stimulus"">_______ | ____ | _______ | ______ | cries</p>","<div class='container trial-question'>
      <h2 class='trial-question-header'>Who cries?</h2>
      <div>
        <div class='container'>
          <h2 class='trial-question-answer'>The dog</h2>
          <h2 class='trial-question-key'>F</h2>
        </div>
        <div class='container'>
          <h2 class='trial-question-answer'>The cat</h2>
          <h2 class='trial-question-key'>J</h2>
        </div>
      </div>
    </div>","","",""
"10355","f","html-keyboard-response","79","2.0.0","1128341","34","question","7","exp_item","","or","ss","<div class='container trial-question'>
      <h2 class='trial-question-header'>Who cries?</h2>
      <div>
        <div class='container'>
          <h2 class='trial-question-answer'>The dog</h2>
          <h2 class='trial-question-key'>F</h2>
        </div>
        <div class='container'>
          <h2 class='trial-question-answer'>The cat</h2>
          <h2 class='trial-question-key'>J</h2>
        </div>
      </div>
    </div>","","f","f","1"
"3072"," ","html-keyboard-response","80","2.0.0","1131925","34","item","7","exp_item","s0","sr","ps","<p class=""trial-stimulus"">________ | ____ | ____ | _______ | ___</p>","","","",""
"759"," ","html-keyboard-response","81","2.0.0","1132685","34","item","7","exp_item","s1","sr","ps","<p class=""trial-stimulus"">The dogs | ____ | ____ | _______ | ___</p>","","","",""
"4959"," ","html-keyboard-response","82","2.0.0","1137645","34","item","7","exp_item","s2","sr","ps","<p class=""trial-stimulus"">________ | that | ____ | _______ | ___</p>","","","",""
"688"," ","html-keyboard-response","83","2.0.0","1138333","34","item","7","exp_item","s3","sr","ps","<p class=""trial-stimulus"">________ | ____ | push | _______ | ___</p>","","","",""
"480"," ","html-keyboard-response","84","2.0.0","1138813","34","item","7","exp_item","s4","sr","ps","<p class=""trial-stimulus"">________ | ____ | ____ | the cat | ___</p>","","","",""
"2615"," ","html-keyboard-response","85","2.0.0","1141429","34","item","7","exp_item","s5","sr","ps","<p class=""trial-stimulus"">________ | ____ | ____ | _______ | cry</p>","false","","",""
"1349"," ","html-keyboard-response","87","2.0.0","1143285","34","item","13","fill_item","s0","sr","ss","<p class=""trial-stimulus"">_________ | ___ | _____ | __________ | ______</p>","","","",""
"656"," ","html-keyboard-response","88","2.0.0","1143941","34","item","13","fill_item","s1","sr","ss","<p class=""trial-stimulus"">The woman | ___ | _____ | __________ | ______</p>","","","",""
"392"," ","html-keyboard-response","89","2.0.0","1144333","34","item","13","fill_item","s2","sr","ss","<p class=""trial-stimulus"">_________ | who | _____ | __________ | ______</p>","","","",""
"343"," ","html-keyboard-response","90","2.0.0","1144677","34","item","13","fill_item","s3","sr","ss","<p class=""trial-stimulus"">_________ | ___ | burns | __________ | ______</p>","","","",""
"704"," ","html-keyboard-response","91","2.0.0","1145381","34","item","13","fill_item","s4","sr","ss","<p class=""trial-stimulus"">_________ | ___ | _____ | the letter | ______</p>","","","",""
"1496"," ","html-keyboard-response","92","2.0.0","1146877","34","item","13","fill_item","s5","sr","ss","<p class=""trial-stimulus"">_________ | ___ | _____ | __________ | leaves</p>","<div class='container trial-question'>
      <h2 class='trial-question-header'>Does the woman leave?</h2>
      <div>
        <div class='container'>
          <h2 class='trial-question-answer'>No</h2>
          <h2 class='trial-question-key'>F</h2>
        </div>
        <div class='container'>
          <h2 class='trial-question-answer'>Yes</h2>
          <h2 class='trial-question-key'>J</h2>
        </div>
      </div>
    </div>","","",""
"3124","j","html-keyboard-response","93","2.0.0","1150509","34","question","13","fill_item","","sr","ss","<div class='container trial-question'>
      <h2 class='trial-question-header'>Does the woman leave?</h2>
      <div>
        <div class='container'>
          <h2 class='trial-question-answer'>No</h2>
          <h2 class='trial-question-key'>F</h2>
        </div>
        <div class='container'>
          <h2 class='trial-question-answer'>Yes</h2>
          <h2 class='trial-question-key'>J</h2>
        </div>
      </div>
    </div>","","j","j","1"
"824"," ","html-keyboard-response","94","2.0.0","1151845","34","item","8","exp_item","s0","sr","pp","<p class=""trial-stimulus"">________ | ____ | ___ | ________ | _____</p>","","","",""
"2000"," ","html-keyboard-response","95","2.0.0","1153845","34","item","8","exp_item","s1","sr","pp","<p class=""trial-stimulus"">The cats | ____ | ___ | ________ | _____</p>","","","",""
"711"," ","html-keyboard-response","96","2.0.0","1154557","34","item","8","exp_item","s2","sr","pp","<p class=""trial-stimulus"">________ | that | ___ | ________ | _____</p>","","","",""
"912"," ","html-keyboard-response","97","2.0.0","1155469","34","item","8","exp_item","s3","sr","pp","<p class=""trial-stimulus"">________ | ____ | hug | ________ | _____</p>","","","",""
"776"," ","html-keyboard-response","98","2.0.0","1156245","34","item","8","exp_item","s4","sr","pp","<p class=""trial-stimulus"">________ | ____ | ___ | the dogs | _____</p>","","","",""
"3407"," ","html-keyboard-response","99","2.0.0","1159653","34","item","8","exp_item","s5","sr","pp","<p class=""trial-stimulus"">________ | ____ | ___ | ________ | smile</p>","false","","",""
"1476"," ","html-keyboard-response","101","2.0.0","1161637","34","item","1","exp_item","s0","or","ss","<p class=""trial-stimulus"">_________ | ____ | _________ | ______ | _____</p>","","","",""
"671"," ","html-keyboard-response","102","2.0.0","1162309","34","item","1","exp_item","s1","or","ss","<p class=""trial-stimulus"">The horse | ____ | _________ | ______ | _____</p>","","","",""
"407"," ","html-keyboard-response","103","2.0.0","1162717","34","item","1","exp_item","s2","or","ss","<p class=""trial-stimulus"">_________ | that | _________ | ______ | _____</p>","","","",""
"344"," ","html-keyboard-response","104","2.0.0","1163061","34","item","1","exp_item","s3","or","ss","<p class=""trial-stimulus"">_________ | ____ | the zebra | ______ | _____</p>","","","",""
"688"," ","html-keyboard-response","105","2.0.0","1163749","34","item","1","exp_item","s4","or","ss","<p class=""trial-stimulus"">_________ | ____ | _________ | chases | _____</p>","","","",""
"1919"," ","html-keyboard-response","106","2.0.0","1165669","34","item","1","exp_item","s5","or","ss","<p class=""trial-stimulus"">_________ | ____ | _________ | ______ | falls</p>","false","","",""
"1539"," ","html-keyboard-response","108","2.0.0","1167709","34","item","15","fill_item","s0","sr","ss","<p class=""trial-stimulus"">_________ | ___ | ______ | __________ | _______</p>","","","",""
"680"," ","html-keyboard-response","109","2.0.0","1168389","34","item","15","fill_item","s1","sr","ss","<p class=""trial-stimulus"">The woman | ___ | ______ | __________ | _______</p>","","","",""
"1200"," ","html-keyboard-response","110","2.0.0","1169589","34","item","15","fill_item","s2","sr","ss","<p class=""trial-stimulus"">_________ | who | ______ | __________ | _______</p>","","","",""
"367"," ","html-keyboard-response","111","2.0.0","1169957","34","item","15","fill_item","s3","sr","ss","<p class=""trial-stimulus"">_________ | ___ | stores | __________ | _______</p>","","","",""
"559"," ","html-keyboard-response","112","2.0.0","1170517","34","item","15","fill_item","s4","sr","ss","<p class=""trial-stimulus"">_________ | ___ | ______ | the letter | _______</p>","","","",""
"816"," ","html-keyboard-response","113","2.0.0","1171333","34","item","15","fill_item","s5","sr","ss","<p class=""trial-stimulus"">_________ | ___ | ______ | __________ | murmurs</p>","<div class='container trial-question'>
      <h2 class='trial-question-header'>Does the woman murmur?</h2>
      <div>
        <div class='container'>
          <h2 class='trial-question-answer'>No</h2>
          <h2 class='trial-question-key'>F</h2>
        </div>
        <div class='container'>
          <h2 class='trial-question-answer'>Yes</h2>
          <h2 class='trial-question-key'>J</h2>
        </div>
      </div>
    </div>","","",""
"2417","j","html-keyboard-response","114","2.0.0","1174253","34","question","15","fill_item","","sr","ss","<div class='container trial-question'>
      <h2 class='trial-question-header'>Does the woman murmur?</h2>
      <div>
        <div class='container'>
          <h2 class='trial-question-answer'>No</h2>
          <h2 class='trial-question-key'>F</h2>
        </div>
        <div class='container'>
          <h2 class='trial-question-answer'>Yes</h2>
          <h2 class='trial-question-key'>J</h2>
        </div>
      </div>
    </div>","","j","j","1"
"1202"," ","html-keyboard-response","115","2.0.0","1175957","34","item","7","exp_item","s0","sr","sp","<p class=""trial-stimulus"">_______ | ____ | ______ | ________ | _____</p>","","","",""
"783"," ","html-keyboard-response","116","2.0.0","1176741","34","item","7","exp_item","s1","sr","sp","<p class=""trial-stimulus"">The dog | ____ | ______ | ________ | _____</p>","","","",""
"1311"," ","html-keyboard-response","117","2.0.0","1178053","34","item","7","exp_item","s2","sr","sp","<p class=""trial-stimulus"">_______ | that | ______ | ________ | _____</p>","","","",""
"671"," ","html-keyboard-response","118","2.0.0","1178725","34","item","7","exp_item","s3","sr","sp","<p class=""trial-stimulus"">_______ | ____ | pushes | ________ | _____</p>","","","",""
"1056"," ","html-keyboard-response","119","2.0.0","1179781","34","item","7","exp_item","s4","sr","sp","<p class=""trial-stimulus"">_______ | ____ | ______ | the cats | _____</p>","","","",""
"1823"," ","html-keyboard-response","120","2.0.0","1181605","34","item","7","exp_item","s5","sr","sp","<p class=""trial-stimulus"">_______ | ____ | ______ | ________ | cries</p>","false","","",""
"1877"," ","html-keyboard-response","122","2.0.0","1183997","34","item","4","exp_item","s0","or","ps","<p class=""trial-stimulus"">__________ | ____ | _________ | _______ | ___</p>","","","",""
"471"," ","html-keyboard-response","123","2.0.0","1184469","34","item","4","exp_item","s1","or","ps","<p class=""trial-stimulus"">The zebras | ____ | _________ | _______ | ___</p>","","","",""
"344"," ","html-keyboard-response","124","2.0.0","1184813","34","item","4","exp_item","s2","or","ps","<p class=""trial-stimulus"">__________ | that | _________ | _______ | ___</p>","","","",""
"991"," ","html-keyboard-response","125","2.0.0","1185805","34","item","4","exp_item","s3","or","ps","<p class=""trial-stimulus"">__________ | ____ | the horse | _______ | ___</p>","","","",""
"784"," ","html-keyboard-response","126","2.0.0","1186589","34","item","4","exp_item","s4","or","ps","<p class=""trial-stimulus"">__________ | ____ | _________ | follows | ___</p>","","","",""
"3423"," ","html-keyboard-response","127","2.0.0","1190013","34","item","4","exp_item","s5","or","ps","<p class=""trial-stimulus"">__________ | ____ | _________ | _______ | run</p>","false","","",""
"2237"," ","html-keyboard-response","129","2.0.0","1192757","34","item","9","fill_item","s0","sr","ss","<p class=""trial-stimulus"">__________ | ___ | ______ | __________ | _______</p>","","","",""
"672"," ","html-keyboard-response","130","2.0.0","1193429","34","item","9","fill_item","s1","sr","ss","<p class=""trial-stimulus"">The singer | ___ | ______ | __________ | _______</p>","","","",""
"343"," ","html-keyboard-response","131","2.0.0","1193773","34","item","9","fill_item","s2","sr","ss","<p class=""trial-stimulus"">__________ | who | ______ | __________ | _______</p>","","","",""
"343"," ","html-keyboard-response","132","2.0.0","1194117","34","item","9","fill_item","s3","sr","ss","<p class=""trial-stimulus"">__________ | ___ | throws | __________ | _______</p>","","","",""
"488"," ","html-keyboard-response","133","2.0.0","1194606","34","item","9","fill_item","s4","sr","ss","<p class=""trial-stimulus"">__________ | ___ | ______ | the guitar | _______</p>","","","",""
"1430"," ","html-keyboard-response","134","2.0.0","1196037","34","item","9","fill_item","s5","sr","ss","<p class=""trial-stimulus"">__________ | ___ | ______ | __________ | screams</p>","<div class='container trial-question'>
      <h2 class='trial-question-header'>Does the singer scream?</h2>
      <div>
        <div class='container'>
          <h2 class='trial-question-answer'>No</h2>
          <h2 class='trial-question-key'>F</h2>
        </div>
        <div class='container'>
          <h2 class='trial-question-answer'>Yes</h2>
          <h2 class='trial-question-key'>J</h2>
        </div>
      </div>
    </div>","","",""
"2980","j","html-keyboard-response","135","2.0.0","1199533","34","question","9","fill_item","","sr","ss","<div class='container trial-question'>
      <h2 class='trial-question-header'>Does the singer scream?</h2>
      <div>
        <div class='container'>
          <h2 class='trial-question-answer'>No</h2>
          <h2 class='trial-question-key'>F</h2>
        </div>
        <div class='container'>
          <h2 class='trial-question-answer'>Yes</h2>
          <h2 class='trial-question-key'>J</h2>
        </div>
      </div>
    </div>","","j","j","1"
"1585"," ","html-keyboard-response","136","2.0.0","1201621","34","item","14","fill_item","s0","sr","ss","<p class=""trial-stimulus"">_________ | ___ | ______ | __________ | _______</p>","","","",""
"591"," ","html-keyboard-response","137","2.0.0","1202213","34","item","14","fill_item","s1","sr","ss","<p class=""trial-stimulus"">The woman | ___ | ______ | __________ | _______</p>","","","",""
"351"," ","html-keyboard-response","138","2.0.0","1202565","34","item","14","fill_item","s2","sr","ss","<p class=""trial-stimulus"">_________ | who | ______ | __________ | _______</p>","","","",""
"2144"," ","html-keyboard-response","139","2.0.0","1204709","34","item","14","fill_item","s3","sr","ss","<p class=""trial-stimulus"">_________ | ___ | throws | __________ | _______</p>","","","",""
"679"," ","html-keyboard-response","140","2.0.0","1205389","34","item","14","fill_item","s4","sr","ss","<p class=""trial-stimulus"">_________ | ___ | ______ | the letter | _______</p>","","","",""
"719"," ","html-keyboard-response","141","2.0.0","1206109","34","item","14","fill_item","s5","sr","ss","<p class=""trial-stimulus"">_________ | ___ | ______ | __________ | screams</p>","false","","",""
"2962"," ","html-keyboard-response","143","2.0.0","1209581","34","item","12","fill_item","s0","sr","ss","<p class=""trial-stimulus"">_________ | ___ | _____ | __________ | _______</p>","","","",""
"791"," ","html-keyboard-response","144","2.0.0","1210373","34","item","12","fill_item","s1","sr","ss","<p class=""trial-stimulus"">The woman | ___ | _____ | __________ | _______</p>","","","",""
"584"," ","html-keyboard-response","145","2.0.0","1210957","34","item","12","fill_item","s2","sr","ss","<p class=""trial-stimulus"">_________ | who | _____ | __________ | _______</p>","","","",""
"615"," ","html-keyboard-response","146","2.0.0","1211573","34","item","12","fill_item","s3","sr","ss","<p class=""trial-stimulus"">_________ | ___ | reads | __________ | _______</p>","","","",""
"376"," ","html-keyboard-response","147","2.0.0","1211949","34","item","12","fill_item","s4","sr","ss","<p class=""trial-stimulus"">_________ | ___ | _____ | the letter | _______</p>","","","",""
"5471"," ","html-keyboard-response","148","2.0.0","1217421","34","item","12","fill_item","s5","sr","ss","<p class=""trial-stimulus"">_________ | ___ | _____ | __________ | screams</p>","false","","",""
"4541"," ","html-keyboard-response","150","2.0.0","1222477","34","item","4","fill_item","s0","sr","ss","<p class=""trial-stimulus"">________ | ___ | ______ | _______ | _______</p>","","","",""
"7976"," ","html-keyboard-response","151","2.0.0","1230453","34","item","4","fill_item","s1","sr","ss","<p class=""trial-stimulus"">The chef | ___ | ______ | _______ | _______</p>","","","",""
"511"," ","html-keyboard-response","152","2.0.0","1230965","34","item","4","fill_item","s2","sr","ss","<p class=""trial-stimulus"">________ | who | ______ | _______ | _______</p>","","","",""
"375"," ","html-keyboard-response","153","2.0.0","1231341","34","item","4","fill_item","s3","sr","ss","<p class=""trial-stimulus"">________ | ___ | throws | _______ | _______</p>","","","",""
"416"," ","html-keyboard-response","154","2.0.0","1231757","34","item","4","fill_item","s4","sr","ss","<p class=""trial-stimulus"">________ | ___ | ______ | the box | _______</p>","","","",""
"991"," ","html-keyboard-response","155","2.0.0","1232749","34","item","4","fill_item","s5","sr","ss","<p class=""trial-stimulus"">________ | ___ | ______ | _______ | screams</p>","false","","",""
"1936"," ","html-keyboard-response","157","2.0.0","1235189","34","item","4","exp_item","s0","or","sp","<p class=""trial-stimulus"">_________ | ____ | __________ | ______ | ____</p>","","","",""
"624"," ","html-keyboard-response","158","2.0.0","1235813","34","item","4","exp_item","s1","or","sp","<p class=""trial-stimulus"">The zebra | ____ | __________ | ______ | ____</p>","","","",""
"383"," ","html-keyboard-response","159","2.0.0","1236197","34","item","4","exp_item","s2","or","sp","<p class=""trial-stimulus"">_________ | that | __________ | ______ | ____</p>","","","",""
"583"," ","html-keyboard-response","160","2.0.0","1236781","34","item","4","exp_item","s3","or","sp","<p class=""trial-stimulus"">_________ | ____ | the horses | ______ | ____</p>","","","",""
"407"," ","html-keyboard-response","161","2.0.0","1237189","34","item","4","exp_item","s4","or","sp","<p class=""trial-stimulus"">_________ | ____ | __________ | follow | ____</p>","","","",""
"479"," ","html-keyboard-response","162","2.0.0","1237669","34","item","4","exp_item","s5","or","sp","<p class=""trial-stimulus"">_________ | ____ | __________ | ______ | runs</p>","<div class='container trial-question'>
     <h2 class='trial-question-header'>Who runs?</h2>
      <div>
        <div class='container'>
          <h2 class='trial-question-answer'>The horses</h2>
          <h2 class='trial-question-key'>F</h2>
        </div>
        <div class='container'>
          <h2 class='trial-question-answer'>The zebra</h2>
          <h2 class='trial-question-key'>J</h2>
        </div>
      </div>
    </div>","","",""
"9154","j","html-keyboard-response","163","2.0.0","1247325","34","question","4","exp_item","","or","sp","<div class='container trial-question'>
     <h2 class='trial-question-header'>Who runs?</h2>
      <div>
        <div class='container'>
          <h2 class='trial-question-answer'>The horses</h2>
          <h2 class='trial-question-key'>F</h2>
        </div>
        <div class='container'>
          <h2 class='trial-question-answer'>The zebra</h2>
          <h2 class='trial-question-key'>J</h2>
        </div>
      </div>
    </div>","","j","j","1"
"2586"," ","html-keyboard-response","164","2.0.0","1250421","34","item","8","exp_item","s0","or","sp","<p class=""trial-stimulus"">_______ | ____ | ________ | ___ | ______</p>","","","",""
"671"," ","html-keyboard-response","165","2.0.0","1251093","34","item","8","exp_item","s1","or","sp","<p class=""trial-stimulus"">The cat | ____ | ________ | ___ | ______</p>","","","",""
"407"," ","html-keyboard-response","166","2.0.0","1251501","34","item","8","exp_item","s2","or","sp","<p class=""trial-stimulus"">_______ | that | ________ | ___ | ______</p>","","","",""
"2096"," ","html-keyboard-response","167","2.0.0","1253597","34","item","8","exp_item","s3","or","sp","<p class=""trial-stimulus"">_______ | ____ | the dogs | ___ | ______</p>","","","",""
"703"," ","html-keyboard-response","168","2.0.0","1254300","34","item","8","exp_item","s4","or","sp","<p class=""trial-stimulus"">_______ | ____ | ________ | hug | ______</p>","","","",""
"688"," ","html-keyboard-response","169","2.0.0","1254989","34","item","8","exp_item","s5","or","sp","<p class=""trial-stimulus"">_______ | ____ | ________ | ___ | smiles</p>","false","","",""
"3847"," ","html-keyboard-response","171","2.0.0","1259349","34","item","4","exp_item","s0","sr","ss","<p class=""trial-stimulus"">_________ | ____ | _______ | _________ | ____</p>","","","",""
"511"," ","html-keyboard-response","172","2.0.0","1259861","34","item","4","exp_item","s1","sr","ss","<p class=""trial-stimulus"">The zebra | ____ | _______ | _________ | ____</p>","","","",""
"432"," ","html-keyboard-response","173","2.0.0","1260293","34","item","4","exp_item","s2","sr","ss","<p class=""trial-stimulus"">_________ | that | _______ | _________ | ____</p>","","","",""
"847"," ","html-keyboard-response","174","2.0.0","1261141","34","item","4","exp_item","s3","sr","ss","<p class=""trial-stimulus"">_________ | ____ | follows | _________ | ____</p>","","","",""
"816"," ","html-keyboard-response","175","2.0.0","1261957","34","item","4","exp_item","s4","sr","ss","<p class=""trial-stimulus"">_________ | ____ | _______ | the horse | ____</p>","","","",""
"2167"," ","html-keyboard-response","176","2.0.0","1264125","34","item","4","exp_item","s5","sr","ss","<p class=""trial-stimulus"">_________ | ____ | _______ | _________ | runs</p>","false","","",""
"3993"," ","html-keyboard-response","178","2.0.0","1268629","34","item","1","fill_item","s0","sr","ss","<p class=""trial-stimulus"">________ | ___ | _______ | _______ | _____</p>","","","",""
"839"," ","html-keyboard-response","179","2.0.0","1269469","34","item","1","fill_item","s1","sr","ss","<p class=""trial-stimulus"">The chef | ___ | _______ | _______ | _____</p>","","","",""
"807"," ","html-keyboard-response","180","2.0.0","1270277","34","item","1","fill_item","s2","sr","ss","<p class=""trial-stimulus"">________ | who | _______ | _______ | _____</p>","","","",""
"663"," ","html-keyboard-response","181","2.0.0","1270941","34","item","1","fill_item","s3","sr","ss","<p class=""trial-stimulus"">________ | ___ | carries | _______ | _____</p>","","","",""
"735"," ","html-keyboard-response","182","2.0.0","1271677","34","item","1","fill_item","s4","sr","ss","<p class=""trial-stimulus"">________ | ___ | _______ | the box | _____</p>","","","",""
"663"," ","html-keyboard-response","183","2.0.0","1272341","34","item","1","fill_item","s5","sr","ss","<p class=""trial-stimulus"">________ | ___ | _______ | _______ | falls</p>","false","","",""
"1231"," ","html-keyboard-response","185","2.0.0","1274085","34","item","11","fill_item","s0","sr","ss","<p class=""trial-stimulus"">_________ | ___ | ______ | __________ | ______</p>","","","",""
"599"," ","html-keyboard-response","186","2.0.0","1274685","34","item","11","fill_item","s1","sr","ss","<p class=""trial-stimulus"">The woman | ___ | ______ | __________ | ______</p>","","","",""
"448"," ","html-keyboard-response","187","2.0.0","1275133","34","item","11","fill_item","s2","sr","ss","<p class=""trial-stimulus"">_________ | who | ______ | __________ | ______</p>","","","",""
"472"," ","html-keyboard-response","188","2.0.0","1275606","34","item","11","fill_item","s3","sr","ss","<p class=""trial-stimulus"">_________ | ___ | writes | __________ | ______</p>","","","",""
"662"," ","html-keyboard-response","189","2.0.0","1276268","34","item","11","fill_item","s4","sr","ss","<p class=""trial-stimulus"">_________ | ___ | ______ | the letter | ______</p>","","","",""
"992"," ","html-keyboard-response","190","2.0.0","1277261","34","item","11","fill_item","s5","sr","ss","<p class=""trial-stimulus"">_________ | ___ | ______ | __________ | smiles</p>","false","","",""
"1196"," ","html-keyboard-response","192","2.0.0","1278965","34","item","6","fill_item","s0","sr","ss","<p class=""trial-stimulus"">__________ | ___ | _____ | __________ | _____</p>","","","",""
"1295"," ","html-keyboard-response","193","2.0.0","1280261","34","item","6","fill_item","s1","sr","ss","<p class=""trial-stimulus"">The singer | ___ | _____ | __________ | _____</p>","","","",""
"560"," ","html-keyboard-response","194","2.0.0","1280821","34","item","6","fill_item","s2","sr","ss","<p class=""trial-stimulus"">__________ | who | _____ | __________ | _____</p>","","","",""
"456"," ","html-keyboard-response","195","2.0.0","1281277","34","item","6","fill_item","s3","sr","ss","<p class=""trial-stimulus"">__________ | ___ | plays | __________ | _____</p>","","","",""
"759"," ","html-keyboard-response","196","2.0.0","1282037","34","item","6","fill_item","s4","sr","ss","<p class=""trial-stimulus"">__________ | ___ | _____ | the guitar | _____</p>","","","",""
"1215"," ","html-keyboard-response","197","2.0.0","1283253","34","item","6","fill_item","s5","sr","ss","<p class=""trial-stimulus"">__________ | ___ | _____ | __________ | sings</p>","false","","",""
"2962"," ","html-keyboard-response","199","2.0.0","1286717","34","item","5","fill_item","s0","sr","ss","<p class=""trial-stimulus"">________ | ___ | _____ | _______ | _____</p>","","","",""
"1064"," ","html-keyboard-response","200","2.0.0","1287781","34","item","5","fill_item","s1","sr","ss","<p class=""trial-stimulus"">The chef | ___ | _____ | _______ | _____</p>","","","",""
"1160"," ","html-keyboard-response","201","2.0.0","1288941","34","item","5","fill_item","s2","sr","ss","<p class=""trial-stimulus"">________ | who | _____ | _______ | _____</p>","","","",""
"847"," ","html-keyboard-response","202","2.0.0","1289789","34","item","5","fill_item","s3","sr","ss","<p class=""trial-stimulus"">________ | ___ | kicks | _______ | _____</p>","","","",""
"968"," ","html-keyboard-response","203","2.0.0","1290757","34","item","5","fill_item","s4","sr","ss","<p class=""trial-stimulus"">________ | ___ | _____ | the box | _____</p>","","","",""
"1072"," ","html-keyboard-response","204","2.0.0","1291829","34","item","5","fill_item","s5","sr","ss","<p class=""trial-stimulus"">________ | ___ | _____ | _______ | cries</p>","<div class='container trial-question'>
    <h2 class='trial-question-header'>Does the chef cry?</h2>
    <div>
      <div class='container'>
        <h2 class='trial-question-answer'>No</h2>
        <h2 class='trial-question-key'>F</h2>
      </div>
      <div class='container'>
        <h2 class='trial-question-answer'>Yes</h2>
        <h2 class='trial-question-key'>J</h2>
      </div>
    </div>
  </div>","","",""
"11274","f","html-keyboard-response","205","2.0.0","1303613","34","question","5","fill_item","","sr","ss","<div class='container trial-question'>
    <h2 class='trial-question-header'>Does the chef cry?</h2>
    <div>
      <div class='container'>
        <h2 class='trial-question-answer'>No</h2>
        <h2 class='trial-question-key'>F</h2>
      </div>
      <div class='container'>
        <h2 class='trial-question-answer'>Yes</h2>
        <h2 class='trial-question-key'>J</h2>
      </div>
    </div>
  </div>","","j","f","0"
"5186"," ","html-keyboard-response","206","2.0.0","1309309","34","item","1","exp_item","s0","or","ps","<p class=""trial-stimulus"">__________ | ____ | _________ | ______ | ____</p>","","","",""
"688"," ","html-keyboard-response","207","2.0.0","1309997","34","item","1","exp_item","s1","or","ps","<p class=""trial-stimulus"">The horses | ____ | _________ | ______ | ____</p>","","","",""
"648"," ","html-keyboard-response","208","2.0.0","1310645","34","item","1","exp_item","s2","or","ps","<p class=""trial-stimulus"">__________ | that | _________ | ______ | ____</p>","","","",""
"863"," ","html-keyboard-response","209","2.0.0","1311508","34","item","1","exp_item","s3","or","ps","<p class=""trial-stimulus"">__________ | ____ | the zebra | ______ | ____</p>","","","",""
"2496"," ","html-keyboard-response","210","2.0.0","1314005","34","item","1","exp_item","s4","or","ps","<p class=""trial-stimulus"">__________ | ____ | _________ | chases | ____</p>","","","",""
"6463"," ","html-keyboard-response","211","2.0.0","1320469","34","item","1","exp_item","s5","or","ps","<p class=""trial-stimulus"">__________ | ____ | _________ | ______ | fall</p>","false","","",""
"2544"," ","html-keyboard-response","213","2.0.0","1323517","34","item","2","fill_item","s0","sr","ss","<p class=""trial-stimulus"">________ | ___ | _____ | _______ | _____</p>","","","",""
"599"," ","html-keyboard-response","214","2.0.0","1324117","34","item","2","fill_item","s1","sr","ss","<p class=""trial-stimulus"">The chef | ___ | _____ | _______ | _____</p>","","","",""
"951"," ","html-keyboard-response","215","2.0.0","1325069","34","item","2","fill_item","s2","sr","ss","<p class=""trial-stimulus"">________ | who | _____ | _______ | _____</p>","","","",""
"752"," ","html-keyboard-response","216","2.0.0","1325821","34","item","2","fill_item","s3","sr","ss","<p class=""trial-stimulus"">________ | ___ | grabs | _______ | _____</p>","","","",""
"687"," ","html-keyboard-response","217","2.0.0","1326509","34","item","2","fill_item","s4","sr","ss","<p class=""trial-stimulus"">________ | ___ | _____ | the box | _____</p>","","","",""
"1864"," ","html-keyboard-response","218","2.0.0","1328373","34","item","2","fill_item","s5","sr","ss","<p class=""trial-stimulus"">________ | ___ | _____ | _______ | jumps</p>","<div class='container trial-question'>
      <h2 class='trial-question-header'>Does the chef scream?</h2>
      <div>
        <div class='container'>
          <h2 class='trial-question-answer'>No</h2>
          <h2 class='trial-question-key'>F</h2>
        </div>
        <div class='container'>
          <h2 class='trial-question-answer'>Yes</h2>
          <h2 class='trial-question-key'>J</h2>
        </div>
      </div>
    </div>","","",""
"2478","f","html-keyboard-response","219","2.0.0","1331364","34","question","2","fill_item","","sr","ss","<div class='container trial-question'>
      <h2 class='trial-question-header'>Does the chef scream?</h2>
      <div>
        <div class='container'>
          <h2 class='trial-question-answer'>No</h2>
          <h2 class='trial-question-key'>F</h2>
        </div>
        <div class='container'>
          <h2 class='trial-question-answer'>Yes</h2>
          <h2 class='trial-question-key'>J</h2>
        </div>
      </div>
    </div>","","f","f","1"
"1198"," ","html-keyboard-response","220","2.0.0","1333068","34","item","8","exp_item","s0","or","pp","<p class=""trial-stimulus"">________ | ____ | ________ | ___ | _____</p>","","","",""
"616"," ","html-keyboard-response","221","2.0.0","1333685","34","item","8","exp_item","s1","or","pp","<p class=""trial-stimulus"">The cats | ____ | ________ | ___ | _____</p>","","","",""
"375"," ","html-keyboard-response","222","2.0.0","1334061","34","item","8","exp_item","s2","or","pp","<p class=""trial-stimulus"">________ | that | ________ | ___ | _____</p>","","","",""
"832"," ","html-keyboard-response","223","2.0.0","1334893","34","item","8","exp_item","s3","or","pp","<p class=""trial-stimulus"">________ | ____ | the dogs | ___ | _____</p>","","","",""
"703"," ","html-keyboard-response","224","2.0.0","1335597","34","item","8","exp_item","s4","or","pp","<p class=""trial-stimulus"">________ | ____ | ________ | hug | _____</p>","","","",""
"1575"," ","html-keyboard-response","225","2.0.0","1337173","34","item","8","exp_item","s5","or","pp","<p class=""trial-stimulus"">________ | ____ | ________ | ___ | smile</p>","false","","",""
"1519"," ","html-keyboard-response","227","2.0.0","1339205","34","item","1","exp_item","s0","or","pp","<p class=""trial-stimulus"">__________ | ____ | __________ | _____ | ____</p>","","","",""
"608"," ","html-keyboard-response","228","2.0.0","1339814","34","item","1","exp_item","s1","or","pp","<p class=""trial-stimulus"">The horses | ____ | __________ | _____ | ____</p>","","","",""
"703"," ","html-keyboard-response","229","2.0.0","1340517","34","item","1","exp_item","s2","or","pp","<p class=""trial-stimulus"">__________ | that | __________ | _____ | ____</p>","","","",""
"455"," ","html-keyboard-response","230","2.0.0","1340973","34","item","1","exp_item","s3","or","pp","<p class=""trial-stimulus"">__________ | ____ | the zebras | _____ | ____</p>","","","",""
"2367"," ","html-keyboard-response","231","2.0.0","1343341","34","item","1","exp_item","s4","or","pp","<p class=""trial-stimulus"">__________ | ____ | __________ | chase | ____</p>","","","",""
"927"," ","html-keyboard-response","232","2.0.0","1344269","34","item","1","exp_item","s5","or","pp","<p class=""trial-stimulus"">__________ | ____ | __________ | _____ | fall</p>","<div class='container trial-question'>
    <h2 class='trial-question-header'>Who falls?</h2>
    <div>
      <div class='container'>
        <h2 class='trial-question-answer'>The zebras</h2>
        <h2 class='trial-question-key'>F</h2>
      </div>
      <div class='container'>
        <h2 class='trial-question-answer'>The horses</h2>
        <h2 class='trial-question-key'>J</h2>
      </div>
    </div>
  </div>","","",""
"1722","j","html-keyboard-response","233","2.0.0","1346493","34","question","1","exp_item","","or","pp","<div class='container trial-question'>
    <h2 class='trial-question-header'>Who falls?</h2>
    <div>
      <div class='container'>
        <h2 class='trial-question-answer'>The zebras</h2>
        <h2 class='trial-question-key'>F</h2>
      </div>
      <div class='container'>
        <h2 class='trial-question-answer'>The horses</h2>
        <h2 class='trial-question-key'>J</h2>
      </div>
    </div>
  </div>","","j","j","1"
"761"," ","html-keyboard-response","234","2.0.0","1347766","34","item","1","exp_item","s0","sr","ps","<p class=""trial-stimulus"">__________ | ____ | _____ | _________ | ____</p>","","","",""
"1614"," ","html-keyboard-response","235","2.0.0","1349381","34","item","1","exp_item","s1","sr","ps","<p class=""trial-stimulus"">The horses | ____ | _____ | _________ | ____</p>","","","",""
"583"," ","html-keyboard-response","236","2.0.0","1349964","34","item","1","exp_item","s2","sr","ps","<p class=""trial-stimulus"">__________ | that | _____ | _________ | ____</p>","","","",""
"656"," ","html-keyboard-response","237","2.0.0","1350620","34","item","1","exp_item","s3","sr","ps","<p class=""trial-stimulus"">__________ | ____ | chase | _________ | ____</p>","","","",""
"904"," ","html-keyboard-response","238","2.0.0","1351525","34","item","1","exp_item","s4","sr","ps","<p class=""trial-stimulus"">__________ | ____ | _____ | the zebra | ____</p>","","","",""
"688"," ","html-keyboard-response","239","2.0.0","1352213","34","item","1","exp_item","s5","sr","ps","<p class=""trial-stimulus"">__________ | ____ | _____ | _________ | fall</p>","false","","",""
"1718"," ","html-keyboard-response","241","2.0.0","1354437","34","item","1","exp_item","s0","or","sp","<p class=""trial-stimulus"">_________ | ____ | __________ | _____ | _____</p>","","","",""
"431"," ","html-keyboard-response","242","2.0.0","1354869","34","item","1","exp_item","s1","or","sp","<p class=""trial-stimulus"">The horse | ____ | __________ | _____ | _____</p>","","","",""
"360"," ","html-keyboard-response","243","2.0.0","1355229","34","item","1","exp_item","s2","or","sp","<p class=""trial-stimulus"">_________ | that | __________ | _____ | _____</p>","","","",""
"1303"," ","html-keyboard-response","244","2.0.0","1356533","34","item","1","exp_item","s3","or","sp","<p class=""trial-stimulus"">_________ | ____ | the zebras | _____ | _____</p>","","","",""
"631"," ","html-keyboard-response","245","2.0.0","1357164","34","item","1","exp_item","s4","or","sp","<p class=""trial-stimulus"">_________ | ____ | __________ | chase | _____</p>","","","",""
"408"," ","html-keyboard-response","246","2.0.0","1357573","34","item","1","exp_item","s5","or","sp","<p class=""trial-stimulus"">_________ | ____ | __________ | _____ | falls</p>","false","","",""
"1036"," ","html-keyboard-response","248","2.0.0","1359125","34","item","3","fill_item","s0","sr","ss","<p class=""trial-stimulus"">________ | ___ | _____ | _______ | ______</p>","","","",""
"416"," ","html-keyboard-response","249","2.0.0","1359542","34","item","3","fill_item","s1","sr","ss","<p class=""trial-stimulus"">The chef | ___ | _____ | _______ | ______</p>","","","",""
"639"," ","html-keyboard-response","250","2.0.0","1360182","34","item","3","fill_item","s2","sr","ss","<p class=""trial-stimulus"">________ | who | _____ | _______ | ______</p>","","","",""
"606"," ","html-keyboard-response","251","2.0.0","1360789","34","item","3","fill_item","s3","sr","ss","<p class=""trial-stimulus"">________ | ___ | opens | _______ | ______</p>","","","",""
"920"," ","html-keyboard-response","252","2.0.0","1361709","34","item","3","fill_item","s4","sr","ss","<p class=""trial-stimulus"">________ | ___ | _____ | the box | ______</p>","","","",""
"1759"," ","html-keyboard-response","253","2.0.0","1363469","34","item","3","fill_item","s5","sr","ss","<p class=""trial-stimulus"">________ | ___ | _____ | _______ | smiles</p>","false","","",""
"1525"," ","html-keyboard-response","255","2.0.0","1365501","34","item","4","exp_item","s0","sr","pp","<p class=""trial-stimulus"">__________ | ____ | ______ | __________ | ___</p>","","","",""
"463"," ","html-keyboard-response","256","2.0.0","1365964","34","item","4","exp_item","s1","sr","pp","<p class=""trial-stimulus"">The zebras | ____ | ______ | __________ | ___</p>","","","",""
"352"," ","html-keyboard-response","257","2.0.0","1366317","34","item","4","exp_item","s2","sr","pp","<p class=""trial-stimulus"">__________ | that | ______ | __________ | ___</p>","","","",""
"631"," ","html-keyboard-response","258","2.0.0","1366949","34","item","4","exp_item","s3","sr","pp","<p class=""trial-stimulus"">__________ | ____ | follow | __________ | ___</p>","","","",""
"600"," ","html-keyboard-response","259","2.0.0","1367549","34","item","4","exp_item","s4","sr","pp","<p class=""trial-stimulus"">__________ | ____ | ______ | the horses | ___</p>","","","",""
"735"," ","html-keyboard-response","260","2.0.0","1368285","34","item","4","exp_item","s5","sr","pp","<p class=""trial-stimulus"">__________ | ____ | ______ | __________ | run</p>","false","","",""
"1537"," ","html-keyboard-response","262","2.0.0","1370324","34","item","4","exp_item","s0","or","pp","<p class=""trial-stimulus"">__________ | ____ | __________ | ______ | ___</p>","","","",""
"609"," ","html-keyboard-response","263","2.0.0","1370934","34","item","4","exp_item","s1","or","pp","<p class=""trial-stimulus"">The zebras | ____ | __________ | ______ | ___</p>","","","",""
"414"," ","html-keyboard-response","264","2.0.0","1371348","34","item","4","exp_item","s2","or","pp","<p class=""trial-stimulus"">__________ | that | __________ | ______ | ___</p>","","","",""
"888"," ","html-keyboard-response","265","2.0.0","1372237","34","item","4","exp_item","s3","or","pp","<p class=""trial-stimulus"">__________ | ____ | the horses | ______ | ___</p>","","","",""
"1311"," ","html-keyboard-response","266","2.0.0","1373548","34","item","4","exp_item","s4","or","pp","<p class=""trial-stimulus"">__________ | ____ | __________ | follow | ___</p>","","","",""
"1392"," ","html-keyboard-response","267","2.0.0","1374941","34","item","4","exp_item","s5","or","pp","<p class=""trial-stimulus"">__________ | ____ | __________ | ______ | run</p>","false","","",""
"1613"," ","html-keyboard-response","269","2.0.0","1377069","34","item","8","exp_item","s0","sr","ss","<p class=""trial-stimulus"">_______ | ____ | ____ | _______ | ______</p>","","","",""
"688"," ","html-keyboard-response","270","2.0.0","1377757","34","item","8","exp_item","s1","sr","ss","<p class=""trial-stimulus"">The cat | ____ | ____ | _______ | ______</p>","","","",""
"432"," ","html-keyboard-response","271","2.0.0","1378189","34","item","8","exp_item","s2","sr","ss","<p class=""trial-stimulus"">_______ | that | ____ | _______ | ______</p>","","","",""
"391"," ","html-keyboard-response","272","2.0.0","1378581","34","item","8","exp_item","s3","sr","ss","<p class=""trial-stimulus"">_______ | ____ | hugs | _______ | ______</p>","","","",""
"464"," ","html-keyboard-response","273","2.0.0","1379045","34","item","8","exp_item","s4","sr","ss","<p class=""trial-stimulus"">_______ | ____ | ____ | the dog | ______</p>","","","",""
"647"," ","html-keyboard-response","274","2.0.0","1379692","34","item","8","exp_item","s5","sr","ss","<p class=""trial-stimulus"">_______ | ____ | ____ | _______ | smiles</p>","false","","",""
"2223"," ","html-keyboard-response","276","2.0.0","1382429","34","item","8","exp_item","s0","or","ss","<p class=""trial-stimulus"">_______ | ____ | _______ | ____ | ______</p>","","","",""
"1616"," ","html-keyboard-response","277","2.0.0","1384045","34","item","8","exp_item","s1","or","ss","<p class=""trial-stimulus"">The cat | ____ | _______ | ____ | ______</p>","","","",""
"551"," ","html-keyboard-response","278","2.0.0","1384597","34","item","8","exp_item","s2","or","ss","<p class=""trial-stimulus"">_______ | that | _______ | ____ | ______</p>","","","",""
"1048"," ","html-keyboard-response","279","2.0.0","1385645","34","item","8","exp_item","s3","or","ss","<p class=""trial-stimulus"">_______ | ____ | the dog | ____ | ______</p>","","","",""
"1551"," ","html-keyboard-response","280","2.0.0","1387197","34","item","8","exp_item","s4","or","ss","<p class=""trial-stimulus"">_______ | ____ | _______ | hugs | ______</p>","","","",""
"1272"," ","html-keyboard-response","281","2.0.0","1388468","34","item","8","exp_item","s5","or","ss","<p class=""trial-stimulus"">_______ | ____ | _______ | ____ | smiles</p>","false","","",""
"6426"," ","html-keyboard-response","283","2.0.0","1395397","34","item","7","exp_item","s0","or","ps","<p class=""trial-stimulus"">________ | ____ | _______ | ______ | ___</p>","","","",""
"1575"," ","html-keyboard-response","284","2.0.0","1396972","34","item","7","exp_item","s1","or","ps","<p class=""trial-stimulus"">The dogs | ____ | _______ | ______ | ___</p>","","","",""
"1776"," ","html-keyboard-response","285","2.0.0","1398749","34","item","7","exp_item","s2","or","ps","<p class=""trial-stimulus"">________ | that | _______ | ______ | ___</p>","","","",""
"647"," ","html-keyboard-response","286","2.0.0","1399396","34","item","7","exp_item","s3","or","ps","<p class=""trial-stimulus"">________ | ____ | the cat | ______ | ___</p>","","","",""
"647"," ","html-keyboard-response","287","2.0.0","1400044","34","item","7","exp_item","s4","or","ps","<p class=""trial-stimulus"">________ | ____ | _______ | pushes | ___</p>","","","",""
"472"," ","html-keyboard-response","288","2.0.0","1400516","34","item","7","exp_item","s5","or","ps","<p class=""trial-stimulus"">________ | ____ | _______ | ______ | cry</p>","false","","",""
"2080"," ","html-keyboard-response","290","2.0.0","1403100","34","item","4","exp_item","s0","sr","ps","<p class=""trial-stimulus"">__________ | ____ | ______ | _________ | ___</p>","","","",""
"616"," ","html-keyboard-response","291","2.0.0","1403716","34","item","4","exp_item","s1","sr","ps","<p class=""trial-stimulus"">The zebras | ____ | ______ | _________ | ___</p>","","","",""
"816"," ","html-keyboard-response","292","2.0.0","1404533","34","item","4","exp_item","s2","sr","ps","<p class=""trial-stimulus"">__________ | that | ______ | _________ | ___</p>","","","",""
"511"," ","html-keyboard-response","293","2.0.0","1405045","34","item","4","exp_item","s3","sr","ps","<p class=""trial-stimulus"">__________ | ____ | follow | _________ | ___</p>","","","",""
"673"," ","html-keyboard-response","294","2.0.0","1405718","34","item","4","exp_item","s4","sr","ps","<p class=""trial-stimulus"">__________ | ____ | ______ | the horse | ___</p>","","","",""
"1222"," ","html-keyboard-response","295","2.0.0","1406941","34","item","4","exp_item","s5","sr","ps","<p class=""trial-stimulus"">__________ | ____ | ______ | _________ | run</p>","<div class='container trial-question'>
      <h2 class='trial-question-header'>Who runs?</h2>
      <div>
        <div class='container'>
          <h2 class='trial-question-answer'>The horse</h2>
          <h2 class='trial-question-key'>F</h2>
        </div>
        <div class='container'>
          <h2 class='trial-question-answer'>The zebras</h2>
          <h2 class='trial-question-key'>J</h2>
        </div>
      </div>
    </div>","","",""
"3438","f","html-keyboard-response","296","2.0.0","1410893","34","question","4","exp_item","","sr","ps","<div class='container trial-question'>
      <h2 class='trial-question-header'>Who runs?</h2>
      <div>
        <div class='container'>
          <h2 class='trial-question-answer'>The horse</h2>
          <h2 class='trial-question-key'>F</h2>
        </div>
        <div class='container'>
          <h2 class='trial-question-answer'>The zebras</h2>
          <h2 class='trial-question-key'>J</h2>
        </div>
      </div>
    </div>","","j","f","0"
"1016"," ","html-keyboard-response","297","2.0.0","1412420","34","item","8","exp_item","s0","sr","ps","<p class=""trial-stimulus"">________ | ____ | ___ | _______ | _____</p>","","","",""
"4200"," ","html-keyboard-response","298","2.0.0","1416621","34","item","8","exp_item","s1","sr","ps","<p class=""trial-stimulus"">The cats | ____ | ___ | _______ | _____</p>","","","",""
"575"," ","html-keyboard-response","299","2.0.0","1417196","34","item","8","exp_item","s2","sr","ps","<p class=""trial-stimulus"">________ | that | ___ | _______ | _____</p>","","","",""
"384"," ","html-keyboard-response","300","2.0.0","1417581","34","item","8","exp_item","s3","sr","ps","<p class=""trial-stimulus"">________ | ____ | hug | _______ | _____</p>","","","",""
"2192"," ","html-keyboard-response","301","2.0.0","1419773","34","item","8","exp_item","s4","sr","ps","<p class=""trial-stimulus"">________ | ____ | ___ | the dog | _____</p>","","","",""
"367"," ","html-keyboard-response","302","2.0.0","1420140","34","item","8","exp_item","s5","sr","ps","<p class=""trial-stimulus"">________ | ____ | ___ | _______ | smile</p>","false","","",""
"826"," ","html-keyboard-response","304","2.0.0","1421479","34","item","8","exp_item","s0","sr","sp","<p class=""trial-stimulus"">_______ | ____ | ____ | ________ | ______</p>","","","",""
"325"," ","html-keyboard-response","305","2.0.0","1421804","34","item","8","exp_item","s1","sr","sp","<p class=""trial-stimulus"">The cat | ____ | ____ | ________ | ______</p>","","","",""
"377"," ","html-keyboard-response","306","2.0.0","1422182","34","item","8","exp_item","s2","sr","sp","<p class=""trial-stimulus"">_______ | that | ____ | ________ | ______</p>","","","",""
"405"," ","html-keyboard-response","307","2.0.0","1422588","34","item","8","exp_item","s3","sr","sp","<p class=""trial-stimulus"">_______ | ____ | hugs | ________ | ______</p>","","","",""
"392"," ","html-keyboard-response","308","2.0.0","1422981","34","item","8","exp_item","s4","sr","sp","<p class=""trial-stimulus"">_______ | ____ | ____ | the dogs | ______</p>","","","",""
"576"," ","html-keyboard-response","309","2.0.0","1423558","34","item","8","exp_item","s5","sr","sp","<p class=""trial-stimulus"">_______ | ____ | ____ | ________ | smiles</p>","<div class='container trial-question'>
      <h2 class='trial-question-header'>Who smiles?</h2>
      <div>
        <div class='container'>
          <h2 class='trial-question-answer'>The cat</h2>
          <h2 class='trial-question-key'>F</h2>
        </div>
        <div class='container'>
          <h2 class='trial-question-answer'>The dogs</h2>
          <h2 class='trial-question-key'>J</h2>
        </div>
      </div>
    </div>","","",""
"4519","j","html-keyboard-response","310","2.0.0","1428589","34","question","8","exp_item","","sr","sp","<div class='container trial-question'>
      <h2 class='trial-question-header'>Who smiles?</h2>
      <div>
        <div class='container'>
          <h2 class='trial-question-answer'>The cat</h2>
          <h2 class='trial-question-key'>F</h2>
        </div>
        <div class='container'>
          <h2 class='trial-question-answer'>The dogs</h2>
          <h2 class='trial-question-key'>J</h2>
        </div>
      </div>
    </div>","","f","j","0"
"439"," ","html-keyboard-response","311","2.0.0","1429540","34","item","1","exp_item","s0","sr","sp","<p class=""trial-stimulus"">_________ | ____ | ______ | __________ | _____</p>","","","",""
"440"," ","html-keyboard-response","312","2.0.0","1429981","34","item","1","exp_item","s1","sr","sp","<p class=""trial-stimulus"">The horse | ____ | ______ | __________ | _____</p>","","","",""
"655"," ","html-keyboard-response","313","2.0.0","1430636","34","item","1","exp_item","s2","sr","sp","<p class=""trial-stimulus"">_________ | that | ______ | __________ | _____</p>","","","",""
"400"," ","html-keyboard-response","314","2.0.0","1431036","34","item","1","exp_item","s3","sr","sp","<p class=""trial-stimulus"">_________ | ____ | chases | __________ | _____</p>","","","",""
"760"," ","html-keyboard-response","315","2.0.0","1431796","34","item","1","exp_item","s4","sr","sp","<p class=""trial-stimulus"">_________ | ____ | ______ | the zebras | _____</p>","","","",""
"505"," ","html-keyboard-response","316","2.0.0","1432302","34","item","1","exp_item","s5","sr","sp","<p class=""trial-stimulus"">_________ | ____ | ______ | __________ | falls</p>","false","","",""
"5007"," ","html-keyboard-response","318","2.0.0","1437813","34","item","4","exp_item","s0","or","ss","<p class=""trial-stimulus"">_________ | ____ | _________ | _______ | ____</p>","","","",""
"511"," ","html-keyboard-response","319","2.0.0","1438324","34","item","4","exp_item","s1","or","ss","<p class=""trial-stimulus"">The zebra | ____ | _________ | _______ | ____</p>","","","",""
"384"," ","html-keyboard-response","320","2.0.0","1438708","34","item","4","exp_item","s2","or","ss","<p class=""trial-stimulus"">_________ | that | _________ | _______ | ____</p>","","","",""
"872"," ","html-keyboard-response","321","2.0.0","1439580","34","item","4","exp_item","s3","or","ss","<p class=""trial-stimulus"">_________ | ____ | the horse | _______ | ____</p>","","","",""
"728"," ","html-keyboard-response","322","2.0.0","1440308","34","item","4","exp_item","s4","or","ss","<p class=""trial-stimulus"">_________ | ____ | _________ | follows | ____</p>","","","",""
"1000"," ","html-keyboard-response","323","2.0.0","1441308","34","item","4","exp_item","s5","or","ss","<p class=""trial-stimulus"">_________ | ____ | _________ | _______ | runs</p>","false","","",""
"984"," ","html-keyboard-response","325","2.0.0","1442805","34","item","8","exp_item","s0","or","ps","<p class=""trial-stimulus"">________ | ____ | _______ | ____ | _____</p>","","","",""
"384"," ","html-keyboard-response","326","2.0.0","1443189","34","item","8","exp_item","s1","or","ps","<p class=""trial-stimulus"">The cats | ____ | _______ | ____ | _____</p>","","","",""
"407"," ","html-keyboard-response","327","2.0.0","1443596","34","item","8","exp_item","s2","or","ps","<p class=""trial-stimulus"">________ | that | _______ | ____ | _____</p>","","","",""
"465"," ","html-keyboard-response","328","2.0.0","1444063","34","item","8","exp_item","s3","or","ps","<p class=""trial-stimulus"">________ | ____ | the dog | ____ | _____</p>","","","",""
"581"," ","html-keyboard-response","329","2.0.0","1444645","34","item","8","exp_item","s4","or","ps","<p class=""trial-stimulus"">________ | ____ | _______ | hugs | _____</p>","","","",""
"2271"," ","html-keyboard-response","330","2.0.0","1446916","34","item","8","exp_item","s5","or","ps","<p class=""trial-stimulus"">________ | ____ | _______ | ____ | smile</p>","<div class='container trial-question'>
      <h2 class='trial-question-header'>Who smiles?</h2>
      <div>
        <div class='container'>
          <h2 class='trial-question-answer'>The dog</h2>
          <h2 class='trial-question-key'>F</h2>
        </div>
        <div class='container'>
          <h2 class='trial-question-answer'>The cats</h2>
          <h2 class='trial-question-key'>J</h2>
        </div>
      </div>
    </div>","","",""
"17761","f","html-keyboard-response","331","2.0.0","1465181","34","question","8","exp_item","","or","ps","<div class='container trial-question'>
      <h2 class='trial-question-header'>Who smiles?</h2>
      <div>
        <div class='container'>
          <h2 class='trial-question-answer'>The dog</h2>
          <h2 class='trial-question-key'>F</h2>
        </div>
        <div class='container'>
          <h2 class='trial-question-answer'>The cats</h2>
          <h2 class='trial-question-key'>J</h2>
        </div>
      </div>
    </div>","","j","f","0"
"838"," ","html-keyboard-response","332","2.0.0","1466525","34","item","8","fill_item","s0","sr","ss","<p class=""trial-stimulus"">__________ | ___ | _______ | __________ | _____</p>","","","",""
"863"," ","html-keyboard-response","333","2.0.0","1467388","34","item","8","fill_item","s1","sr","ss","<p class=""trial-stimulus"">The singer | ___ | _______ | __________ | _____</p>","","","",""
"3272"," ","html-keyboard-response","334","2.0.0","1470660","34","item","8","fill_item","s2","sr","ss","<p class=""trial-stimulus"">__________ | who | _______ | __________ | _____</p>","","","",""
"1152"," ","html-keyboard-response","335","2.0.0","1471813","34","item","8","fill_item","s3","sr","ss","<p class=""trial-stimulus"">__________ | ___ | smashes | __________ | _____</p>","","","",""
"4495"," ","html-keyboard-response","336","2.0.0","1476308","34","item","8","fill_item","s4","sr","ss","<p class=""trial-stimulus"">__________ | ___ | _______ | the guitar | _____</p>","","","",""
"680"," ","html-keyboard-response","337","2.0.0","1476988","34","item","8","fill_item","s5","sr","ss","<p class=""trial-stimulus"">__________ | ___ | _______ | __________ | cries</p>","false","","",""
"878"," ","html-keyboard-response","339","2.0.0","1478380","34","item","10","fill_item","s0","sr","ss","<p class=""trial-stimulus"">__________ | ___ | ______ | __________ | _______</p>","","","",""
"576"," ","html-keyboard-response","340","2.0.0","1478957","34","item","10","fill_item","s1","sr","ss","<p class=""trial-stimulus"">The singer | ___ | ______ | __________ | _______</p>","","","",""
"375"," ","html-keyboard-response","341","2.0.0","1479333","34","item","10","fill_item","s2","sr","ss","<p class=""trial-stimulus"">__________ | who | ______ | __________ | _______</p>","","","",""
"463"," ","html-keyboard-response","342","2.0.0","1479796","34","item","10","fill_item","s3","sr","ss","<p class=""trial-stimulus"">__________ | ___ | stores | __________ | _______</p>","","","",""
"481"," ","html-keyboard-response","343","2.0.0","1480279","34","item","10","fill_item","s4","sr","ss","<p class=""trial-stimulus"">__________ | ___ | ______ | the guitar | _______</p>","","","",""
"645"," ","html-keyboard-response","344","2.0.0","1480924","34","item","10","fill_item","s5","sr","ss","<p class=""trial-stimulus"">__________ | ___ | ______ | __________ | murmurs</p>","false","","",""
