"task","stimulus","rt","response","trial_type","trial_index","plugin_version","time_elapsed","part_id","item_type","segment","clause_type","number","correct_answer","answer"
"fixation","<p class=""fixation"">+</p>","null","null","html-keyboard-response","2","2.0.0","4","7yo","","","","","",""
"item","<p class=""stimulus"">_______ | ____ | _______ | ________ | ____</p>","539"," ","html-keyboard-response","3","2.0.0","4","7yo","pr_item","s0","sr","sp","",""
"item","<p class=""stimulus"">The cat | ____ | _______ | ________ | ____</p>","705"," ","html-keyboard-response","4","2.0.0","4","7yo","pr_item","s1","sr","sp","",""
"item","<p class=""stimulus"">_______ | that | _______ | ________ | ____</p>","675"," ","html-keyboard-response","5","2.0.0","5","7yo","pr_item","s2","sr","sp","",""
"item","<p class=""stimulus"">_______ | ____ | watches | ________ | ____</p>","613"," ","html-keyboard-response","6","2.0.0","5","7yo","pr_item","s3","sr","sp","",""
"item","<p class=""stimulus"">_______ | ____ | _______ | the dogs | ____</p>","569"," ","html-keyboard-response","7","2.0.0","5","7yo","pr_item","s4","sr","sp","",""
"item","<p class=""stimulus"">_______ | ____ | _______ | ________ | eats</p>","559"," ","html-keyboard-response","8","2.0.0","5","7yo","pr_item","s5","sr","sp","",""
"question","<h2>Do the dogs that watch the cat eat?</h2>","573","1","html-button-response","9","2.0.0","5","7yo","pr_item","","sr","sp","0","1"
"fixation","<p class=""fixation"">+</p>","null","null","html-keyboard-response","10","2.0.0","5","7yo","","","","","",""
"item","<p class=""stimulus"">________ | ____ | ________ | _____ | ___</p>","591"," ","html-keyboard-response","11","2.0.0","5","7yo","exp_item","s0","or","pp","",""
"item","<p class=""stimulus"">The cats | ____ | ________ | _____ | ___</p>","830"," ","html-keyboard-response","12","2.0.0","5","7yo","exp_item","s1","or","pp","",""
"item","<p class=""stimulus"">________ | that | ________ | _____ | ___</p>","470"," ","html-keyboard-response","13","2.0.0","5","7yo","exp_item","s2","or","pp","",""
"item","<p class=""stimulus"">________ | ____ | the dogs | _____ | ___</p>","749"," ","html-keyboard-response","14","2.0.0","5","7yo","exp_item","s3","or","pp","",""
"item","<p class=""stimulus"">________ | ____ | ________ | watch | ___</p>","508"," ","html-keyboard-response","15","2.0.0","5","7yo","exp_item","s4","or","pp","",""
"item","<p class=""stimulus"">________ | ____ | ________ | _____ | eat</p>","454"," ","html-keyboard-response","16","2.0.0","5","7yo","exp_item","s5","or","pp","",""
"question","<h2>Do the dogs that the cats watch eat?</h2>","510","1","html-button-response","17","2.0.0","5","7yo","exp_item","","or","pp","0","1"
"fixation","<p class=""fixation"">+</p>","null","null","html-keyboard-response","19","2.0.0","8","7yo","","","","","",""
"item","<p class=""stimulus"">_______ | ____ | ______ | ________ | _____</p>","537"," ","html-keyboard-response","20","2.0.0","8","7yo","exp_item","s0","sr","sp","",""
"item","<p class=""stimulus"">The dog | ____ | ______ | ________ | _____</p>","469"," ","html-keyboard-response","21","2.0.0","8","7yo","exp_item","s1","sr","sp","",""
"item","<p class=""stimulus"">_______ | that | ______ | ________ | _____</p>","386"," ","html-keyboard-response","22","2.0.0","8","7yo","exp_item","s2","sr","sp","",""
"item","<p class=""stimulus"">_______ | ____ | pushes | ________ | _____</p>","656"," ","html-keyboard-response","23","2.0.0","8","7yo","exp_item","s3","sr","sp","",""
"item","<p class=""stimulus"">_______ | ____ | ______ | the cats | _____</p>","608"," ","html-keyboard-response","24","2.0.0","8","7yo","exp_item","s4","sr","sp","",""
"item","<p class=""stimulus"">_______ | ____ | ______ | ________ | cries</p>","590"," ","html-keyboard-response","25","2.0.0","8","7yo","exp_item","s5","sr","sp","",""
"question","<h2>Do the cats that push the dog cry?</h2>","622","0","html-button-response","26","2.0.0","8","7yo","exp_item","","sr","sp","0","0"
"fixation","<p class=""fixation"">+</p>","null","null","html-keyboard-response","27","2.0.0","8","7yo","","","","","",""
"item","<p class=""stimulus"">_______ | ____ | ________ | ____ | _____</p>","583"," ","html-keyboard-response","28","2.0.0","8","7yo","exp_item","s0","or","sp","",""
"item","<p class=""stimulus"">The dog | ____ | ________ | ____ | _____</p>","743"," ","html-keyboard-response","29","2.0.0","8","7yo","exp_item","s1","or","sp","",""
"item","<p class=""stimulus"">_______ | that | ________ | ____ | _____</p>","511"," ","html-keyboard-response","30","2.0.0","8","7yo","exp_item","s2","or","sp","",""
"item","<p class=""stimulus"">_______ | ____ | the cats | ____ | _____</p>","1384"," ","html-keyboard-response","31","2.0.0","8","7yo","exp_item","s3","or","sp","",""
"item","<p class=""stimulus"">_______ | ____ | ________ | push | _____</p>","538"," ","html-keyboard-response","32","2.0.0","8","7yo","exp_item","s4","or","sp","",""
"item","<p class=""stimulus"">_______ | ____ | ________ | ____ | cries</p>","528"," ","html-keyboard-response","33","2.0.0","8","7yo","exp_item","s5","or","sp","",""
"question","<h2>Do the cats that the dog pushes cry?</h2>","511","0","html-button-response","34","2.0.0","8","7yo","exp_item","","or","sp","0","0"
"fixation","<p class=""fixation"">+</p>","null","null","html-keyboard-response","35","2.0.0","9","7yo","","","","","",""
"item","<p class=""stimulus"">__________ | ___ | _____ | __________ | _____</p>","532"," ","html-keyboard-response","36","2.0.0","9","7yo","fill_item","s0","sr","ss","",""
"item","<p class=""stimulus"">The singer | ___ | _____ | __________ | _____</p>","933"," ","html-keyboard-response","37","2.0.0","9","7yo","fill_item","s1","sr","ss","",""
"item","<p class=""stimulus"">__________ | who | _____ | __________ | _____</p>","551"," ","html-keyboard-response","38","2.0.0","9","7yo","fill_item","s2","sr","ss","",""
"item","<p class=""stimulus"">__________ | ___ | plays |___________ | _____</p>","657"," ","html-keyboard-response","39","2.0.0","9","7yo","fill_item","s3","sr","ss","",""
"item","<p class=""stimulus"">__________ | ___ | _____ | the guitar | _____</p>","496"," ","html-keyboard-response","40","2.0.0","9","7yo","fill_item","s4","sr","ss","",""
"item","<p class=""stimulus"">__________ | ___ | _____ | __________ | sings</p>","536"," ","html-keyboard-response","41","2.0.0","9","7yo","fill_item","s5","sr","ss","",""
"question","<h2>Does the singer who plays the guitar cry?</h2>","876","1","html-button-response","42","2.0.0","9","7yo","fill_item","","sr","ss","0","1"
"fixation","<p class=""fixation"">+</p>","null","null","html-keyboard-response","43","2.0.0","9","7yo","","","","","",""
"item","<p class=""stimulus"">________ | ____ | ____ | _______ | ___</p>","806"," ","html-keyboard-response","44","2.0.0","9","7yo","exp_item","s0","sr","ps","",""
"item","<p class=""stimulus"">The dogs | ____ | ____ | _______ | ___</p>","482"," ","html-keyboard-response","45","2.0.0","9","7yo","exp_item","s1","sr","ps","",""
"item","<p class=""stimulus"">________ | that | ____ | _______ | ___</p>","564"," ","html-keyboard-response","46","2.0.0","9","7yo","exp_item","s2","sr","ps","",""
"item","<p class=""stimulus"">________ | ____ | push | _______ | ___</p>","757"," ","html-keyboard-response","47","2.0.0","9","7yo","exp_item","s3","sr","ps","",""
"item","<p class=""stimulus"">________ | ____ | ____ | the cat | ___</p>","520"," ","html-keyboard-response","48","2.0.0","9","7yo","exp_item","s4","sr","ps","",""
"item","<p class=""stimulus"">________ | ____ | ____ | _______ | cry</p>","529"," ","html-keyboard-response","49","2.0.0","9","7yo","exp_item","s5","sr","ps","",""
"question","<h2>Does the cat that pushes the dogs cry?</h2>","752","0","html-button-response","50","2.0.0","9","7yo","exp_item","","sr","ps","0","0"
"fixation","<p class=""fixation"">+</p>","null","null","html-keyboard-response","51","2.0.0","9","7yo","","","","","",""
"item","<p class=""stimulus"">_________ | ___ | ______ | __________ | _______</p>","578"," ","html-keyboard-response","52","2.0.0","9","7yo","fill_item","s0","sr","ss","",""
"item","<p class=""stimulus"">The woman | ___ | ______ | __________ | _______</p>","937"," ","html-keyboard-response","53","2.0.0","9","7yo","fill_item","s1","sr","ss","",""
"item","<p class=""stimulus"">_________ | who | ______ | __________ | _______</p>","495"," ","html-keyboard-response","54","2.0.0","9","7yo","fill_item","s2","sr","ss","",""
"item","<p class=""stimulus"">_________ | ___ | stores |___________ | _______</p>","1012"," ","html-keyboard-response","55","2.0.0","9","7yo","fill_item","s3","sr","ss","",""
"item","<p class=""stimulus"">_________ | ___ | ______ | the letter | _______</p>","637"," ","html-keyboard-response","56","2.0.0","9","7yo","fill_item","s4","sr","ss","",""
"item","<p class=""stimulus"">_________ | ___ | ______ | __________ | murmurs</p>","595"," ","html-keyboard-response","57","2.0.0","9","7yo","fill_item","s5","sr","ss","",""
"question","<h2>Does the woman who stores the letter murmur?</h2>","529","1","html-button-response","58","2.0.0","9","7yo","fill_item","","sr","ss","1","1"
"fixation","<p class=""fixation"">+</p>","null","null","html-keyboard-response","59","2.0.0","9","7yo","","","","","",""
"item","<p class=""stimulus"">________ | ___ | _____ | _______ | _____</p>","567"," ","html-keyboard-response","60","2.0.0","9","7yo","fill_item","s0","sr","ss","",""
"item","<p class=""stimulus"">The chef | ___ | _____ | _______ | _____</p>","484"," ","html-keyboard-response","61","2.0.0","9","7yo","fill_item","s1","sr","ss","",""
"item","<p class=""stimulus"">________ | who | _____ | _______ | _____</p>","652"," ","html-keyboard-response","62","2.0.0","9","7yo","fill_item","s2","sr","ss","",""
"item","<p class=""stimulus"">________ | ___ | kicks |________ | _____</p>","610"," ","html-keyboard-response","63","2.0.0","9","7yo","fill_item","s3","sr","ss","",""
"item","<p class=""stimulus"">________ | ___ | _____ | the box | _____</p>","810"," ","html-keyboard-response","64","2.0.0","9","7yo","fill_item","s4","sr","ss","",""
"item","<p class=""stimulus"">________ | ___ | _____ | _______ | cries</p>","692"," ","html-keyboard-response","65","2.0.0","9","7yo","fill_item","s5","sr","ss","",""
"question","<h2>Does the chef who kicks the box cry?</h2>","809","0","html-button-response","66","2.0.0","10","7yo","fill_item","","sr","ss","1","0"
"fixation","<p class=""fixation"">+</p>","null","null","html-keyboard-response","67","2.0.0","10","7yo","","","","","",""
"item","<p class=""stimulus"">________ | ___ | _______ | _______ | _____</p>","554"," ","html-keyboard-response","68","2.0.0","10","7yo","fill_item","s0","sr","ss","",""
"item","<p class=""stimulus"">The chef | ___ | _______ | _______ | _____</p>","490"," ","html-keyboard-response","69","2.0.0","10","7yo","fill_item","s1","sr","ss","",""
"item","<p class=""stimulus"">________ | who | _______ | _______ | _____</p>","878"," ","html-keyboard-response","70","2.0.0","10","7yo","fill_item","s2","sr","ss","",""
"item","<p class=""stimulus"">________ | ___ | carries |________ | _____</p>","523"," ","html-keyboard-response","71","2.0.0","10","7yo","fill_item","s3","sr","ss","",""
"item","<p class=""stimulus"">________ | ___ | _______ | the box | _____</p>","580"," ","html-keyboard-response","72","2.0.0","10","7yo","fill_item","s4","sr","ss","",""
"item","<p class=""stimulus"">________ | ___ | _______ | _______ | falls</p>","655"," ","html-keyboard-response","73","2.0.0","10","7yo","fill_item","s5","sr","ss","",""
"question","<h2>Does the chef who carries the box fall?</h2>","529","0","html-button-response","74","2.0.0","10","7yo","fill_item","","sr","ss","1","0"
"fixation","<p class=""fixation"">+</p>","null","null","html-keyboard-response","75","2.0.0","10","7yo","","","","","",""
"item","<p class=""stimulus"">________ | ___ | _____ | _______ | _____</p>","881"," ","html-keyboard-response","76","2.0.0","10","7yo","fill_item","s0","sr","ss","",""
"item","<p class=""stimulus"">The chef | ___ | _____ | _______ | _____</p>","586"," ","html-keyboard-response","77","2.0.0","10","7yo","fill_item","s1","sr","ss","",""
"item","<p class=""stimulus"">________ | who | _____ | _______ | _____</p>","552"," ","html-keyboard-response","78","2.0.0","10","7yo","fill_item","s2","sr","ss","",""
"item","<p class=""stimulus"">________ | ___ | grabs |________ | _____</p>","464"," ","html-keyboard-response","79","2.0.0","10","7yo","fill_item","s3","sr","ss","",""
"item","<p class=""stimulus"">________ | ___ | _____ | the box | _____</p>","876"," ","html-keyboard-response","80","2.0.0","10","7yo","fill_item","s4","sr","ss","",""
"item","<p class=""stimulus"">________ | ___ | _____ | _______ | jumps</p>","682"," ","html-keyboard-response","81","2.0.0","10","7yo","fill_item","s5","sr","ss","",""
"question","<h2>Does the box that the chef grabs fall?</h2>","765","1","html-button-response","82","2.0.0","10","7yo","fill_item","","sr","ss","0","1"
"fixation","<p class=""fixation"">+</p>","null","null","html-keyboard-response","83","2.0.0","10","7yo","","","","","",""
"item","<p class=""stimulus"">__________ | ___ | ______ | __________ | _______</p>","727"," ","html-keyboard-response","84","2.0.0","10","7yo","fill_item","s0","sr","ss","",""
"item","<p class=""stimulus"">The singer | ___ | ______ | __________ | _______</p>","717"," ","html-keyboard-response","85","2.0.0","10","7yo","fill_item","s1","sr","ss","",""
"item","<p class=""stimulus"">__________ | who | ______ | __________ | _______</p>","552"," ","html-keyboard-response","86","2.0.0","10","7yo","fill_item","s2","sr","ss","",""
"item","<p class=""stimulus"">__________ | ___ | stores |___________ | _______</p>","538"," ","html-keyboard-response","87","2.0.0","10","7yo","fill_item","s3","sr","ss","",""
"item","<p class=""stimulus"">__________ | ___ | ______ | the guitar | _______</p>","1031"," ","html-keyboard-response","88","2.0.0","10","7yo","fill_item","s4","sr","ss","",""
"item","<p class=""stimulus"">__________ | ___ | ______ | __________ | murmurs</p>","524"," ","html-keyboard-response","89","2.0.0","10","7yo","fill_item","s5","sr","ss","",""
"question","<h2>Does the singer who stores the guitar cry?</h2>","523","0","html-button-response","90","2.0.0","10","7yo","fill_item","","sr","ss","0","0"
"fixation","<p class=""fixation"">+</p>","null","null","html-keyboard-response","91","2.0.0","10","7yo","","","","","",""
"item","<p class=""stimulus"">_______ | ____ | _______ | ______ | _____</p>","779"," ","html-keyboard-response","92","2.0.0","11","7yo","exp_item","s0","or","ss","",""
"item","<p class=""stimulus"">The dog | ____ | _______ | ______ | _____</p>","556"," ","html-keyboard-response","93","2.0.0","11","7yo","exp_item","s1","or","ss","",""
"item","<p class=""stimulus"">_______ | that | _______ | ______ | _____</p>","576"," ","html-keyboard-response","94","2.0.0","11","7yo","exp_item","s2","or","ss","",""
"item","<p class=""stimulus"">_______ | ____ | the cat | ______ | _____</p>","597"," ","html-keyboard-response","95","2.0.0","11","7yo","exp_item","s3","or","ss","",""
"item","<p class=""stimulus"">_______ | ____ | _______ | pushes | _____</p>","559"," ","html-keyboard-response","96","2.0.0","11","7yo","exp_item","s4","or","ss","",""
"item","<p class=""stimulus"">_______ | ____ | _______ | ______ | cries</p>","785"," ","html-keyboard-response","97","2.0.0","11","7yo","exp_item","s5","or","ss","",""
"question","<h2>Does the cat that the dog pushes cry?</h2>","612","0","html-button-response","98","2.0.0","11","7yo","exp_item","","or","ss","0","0"
