"task","stimulus","rt","response","trial_type","trial_index","plugin_version","time_elapsed","part_id","item_type","segment","clause_type","number","correct_answer","answer"
"fixation","<p class=""fixation"">+</p>","null","null","html-keyboard-response","2","2.0.0","1","bzm","","","","","",""
"item","<p class=""stimulus"">_______ | ____ | _______ | ________ | ____</p>","1083"," ","html-keyboard-response","3","2.0.0","1","bzm","pr_item","s0","sr","sp","",""
"item","<p class=""stimulus"">The cat | ____ | _______ | ________ | ____</p>","749"," ","html-keyboard-response","4","2.0.0","1","bzm","pr_item","s1","sr","sp","",""
"item","<p class=""stimulus"">_______ | that | _______ | ________ | ____</p>","575"," ","html-keyboard-response","5","2.0.0","1","bzm","pr_item","s2","sr","sp","",""
"item","<p class=""stimulus"">_______ | ____ | watches | ________ | ____</p>","512"," ","html-keyboard-response","6","2.0.0","1","bzm","pr_item","s3","sr","sp","",""
"item","<p class=""stimulus"">_______ | ____ | _______ | the dogs | ____</p>","520"," ","html-keyboard-response","7","2.0.0","1","bzm","pr_item","s4","sr","sp","",""
"item","<p class=""stimulus"">_______ | ____ | _______ | ________ | eats</p>","449"," ","html-keyboard-response","8","2.0.0","1","bzm","pr_item","s5","sr","sp","",""
"question","<h2>Do the dogs that watch the cat eat?</h2>","803","0","html-button-response","9","2.0.0","1","bzm","pr_item","","sr","sp","0","0"
"fixation","<p class=""fixation"">+</p>","null","null","html-keyboard-response","10","2.0.0","1","bzm","","","","","",""
"item","<p class=""stimulus"">________ | ____ | ________ | _____ | ___</p>","433"," ","html-keyboard-response","11","2.0.0","1","bzm","exp_item","s0","or","pp","",""
"item","<p class=""stimulus"">The cats | ____ | ________ | _____ | ___</p>","548"," ","html-keyboard-response","12","2.0.0","1","bzm","exp_item","s1","or","pp","",""
"item","<p class=""stimulus"">________ | that | ________ | _____ | ___</p>","438"," ","html-keyboard-response","13","2.0.0","1","bzm","exp_item","s2","or","pp","",""
"item","<p class=""stimulus"">________ | ____ | the dogs | _____ | ___</p>","986"," ","html-keyboard-response","14","2.0.0","2","bzm","exp_item","s3","or","pp","",""
"item","<p class=""stimulus"">________ | ____ | ________ | watch | ___</p>","727"," ","html-keyboard-response","15","2.0.0","2","bzm","exp_item","s4","or","pp","",""
"item","<p class=""stimulus"">________ | ____ | ________ | _____ | eat</p>","512"," ","html-keyboard-response","16","2.0.0","2","bzm","exp_item","s5","or","pp","",""
"question","<h2>Do the dogs that the cats watch eat?</h2>","1081","1","html-button-response","17","2.0.0","2","bzm","exp_item","","or","pp","0","1"
"fixation","<p class=""fixation"">+</p>","null","null","html-keyboard-response","19","2.0.0","2","bzm","","","","","",""
"item","<p class=""stimulus"">________ | ___ | _____ | _______ | _____</p>","528"," ","html-keyboard-response","20","2.0.0","2","bzm","fill_item","s0","sr","ss","",""
"item","<p class=""stimulus"">The chef | ___ | _____ | _______ | _____</p>","767"," ","html-keyboard-response","21","2.0.0","2","bzm","fill_item","s1","sr","ss","",""
"item","<p class=""stimulus"">________ | who | _____ | _______ | _____</p>","556"," ","html-keyboard-response","22","2.0.0","2","bzm","fill_item","s2","sr","ss","",""
"item","<p class=""stimulus"">________ | ___ | kicks |________ | _____</p>","601"," ","html-keyboard-response","23","2.0.0","2","bzm","fill_item","s3","sr","ss","",""
"item","<p class=""stimulus"">________ | ___ | _____ | the box | _____</p>","559"," ","html-keyboard-response","24","2.0.0","2","bzm","fill_item","s4","sr","ss","",""
"item","<p class=""stimulus"">________ | ___ | _____ | _______ | cries</p>","719"," ","html-keyboard-response","25","2.0.0","2","bzm","fill_item","s5","sr","ss","",""
"question","<h2>Does the chef who kicks the box cry?</h2>","515","0","html-button-response","26","2.0.0","2","bzm","fill_item","","sr","ss","1","0"
"fixation","<p class=""fixation"">+</p>","null","null","html-keyboard-response","27","2.0.0","2","bzm","","","","","",""
"item","<p class=""stimulus"">__________ | ___ | _____ | __________ | _____</p>","503"," ","html-keyboard-response","28","2.0.0","2","bzm","fill_item","s0","sr","ss","",""
"item","<p class=""stimulus"">The singer | ___ | _____ | __________ | _____</p>","700"," ","html-keyboard-response","29","2.0.0","3","bzm","fill_item","s1","sr","ss","",""
"item","<p class=""stimulus"">__________ | who | _____ | __________ | _____</p>","608"," ","html-keyboard-response","30","2.0.0","3","bzm","fill_item","s2","sr","ss","",""
"item","<p class=""stimulus"">__________ | ___ | grabs |___________ | _____</p>","778"," ","html-keyboard-response","31","2.0.0","3","bzm","fill_item","s3","sr","ss","",""
"item","<p class=""stimulus"">__________ | ___ | _____ | the guitar | _____</p>","642"," ","html-keyboard-response","32","2.0.0","3","bzm","fill_item","s4","sr","ss","",""
"item","<p class=""stimulus"">__________ | ___ | _____ | __________ | cries</p>","672"," ","html-keyboard-response","33","2.0.0","3","bzm","fill_item","s5","sr","ss","",""
"question","<h2>Does the singer who grabs the guitar cry?</h2>","815","1","html-button-response","34","2.0.0","3","bzm","fill_item","","sr","ss","1","1"
"fixation","<p class=""fixation"">+</p>","null","null","html-keyboard-response","35","2.0.0","3","bzm","","","","","",""
"item","<p class=""stimulus"">_______ | ____ | _______ | ____ | ______</p>","688"," ","html-keyboard-response","36","2.0.0","3","bzm","exp_item","s0","or","ss","",""
"item","<p class=""stimulus"">The cat | ____ | _______ | ____ | ______</p>","769"," ","html-keyboard-response","37","2.0.0","3","bzm","exp_item","s1","or","ss","",""
"item","<p class=""stimulus"">_______ | that | _______ | ____ | ______</p>","703"," ","html-keyboard-response","38","2.0.0","3","bzm","exp_item","s2","or","ss","",""
"item","<p class=""stimulus"">_______ | ____ | the dog | ____ | ______</p>","746"," ","html-keyboard-response","39","2.0.0","3","bzm","exp_item","s3","or","ss","",""
"item","<p class=""stimulus"">_______ | ____ | _______ | hugs | ______</p>","559"," ","html-keyboard-response","40","2.0.0","3","bzm","exp_item","s4","or","ss","",""
"item","<p class=""stimulus"">_______ | ____ | _______ | ____ | smiles</p>","664"," ","html-keyboard-response","41","2.0.0","3","bzm","exp_item","s5","or","ss","",""
"question","<h2>Does the cat that the dog hugs smile?","492","0","html-button-response","42","2.0.0","3","bzm","exp_item","","or","ss","1","0"
"fixation","<p class=""fixation"">+</p>","null","null","html-keyboard-response","43","2.0.0","3","bzm","","","","","",""
"item","<p class=""stimulus"">________ | ____ | ________ | ____ | ___</p>","620"," ","html-keyboard-response","44","2.0.0","3","bzm","exp_item","s0","or","pp","",""
"item","<p class=""stimulus"">The dogs | ____ | ________ | ____ | ___</p>","796"," ","html-keyboard-response","45","2.0.0","3","bzm","exp_item","s1","or","pp","",""
"item","<p class=""stimulus"">________ | that | ________ | ____ | ___</p>","499"," ","html-keyboard-response","46","2.0.0","3","bzm","exp_item","s2","or","pp","",""
"item","<p class=""stimulus"">________ | ____ | the cats | ____ | ___</p>","601"," ","html-keyboard-response","47","2.0.0","3","bzm","exp_item","s3","or","pp","",""
"item","<p class=""stimulus"">________ | ____ | ________ | push | ___</p>","1061"," ","html-keyboard-response","48","2.0.0","4","bzm","exp_item","s4","or","pp","",""
"item","<p class=""stimulus"">________ | ____ | ________ | ____ | cry</p>","740"," ","html-keyboard-response","49","2.0.0","4","bzm","exp_item","s5","or","pp","",""
"question","<h2>Do the cats that the dogs push cry?</h2>","513","1","html-button-response","50","2.0.0","4","bzm","exp_item","","or","pp","0","1"
"fixation","<p class=""fixation"">+</p>","null","null","html-keyboard-response","51","2.0.0","4","bzm","","","","","",""
"item","<p class=""stimulus"">__________ | ___ | ______ | __________ | _______</p>","467"," ","html-keyboard-response","52","2.0.0","4","bzm","fill_item","s0","sr","ss","",""
"item","<p class=""stimulus"">The singer | ___ | ______ | __________ | _______</p>","555"," ","html-keyboard-response","53","2.0.0","4","bzm","fill_item","s1","sr","ss","",""
"item","<p class=""stimulus"">__________ | who | ______ | __________ | _______</p>","828"," ","html-keyboard-response","54","2.0.0","4","bzm","fill_item","s2","sr","ss","",""
"item","<p class=""stimulus"">__________ | ___ | stores |___________ | _______</p>","687"," ","html-keyboard-response","55","2.0.0","4","bzm","fill_item","s3","sr","ss","",""
"item","<p class=""stimulus"">__________ | ___ | ______ | the guitar | _______</p>","711"," ","html-keyboard-response","56","2.0.0","4","bzm","fill_item","s4","sr","ss","",""
"item","<p class=""stimulus"">__________ | ___ | ______ | __________ | murmurs</p>","942"," ","html-keyboard-response","57","2.0.0","4","bzm","fill_item","s5","sr","ss","",""
"question","<h2>Does the singer who stores the guitar cry?</h2>","540","0","html-button-response","58","2.0.0","4","bzm","fill_item","","sr","ss","0","0"
"fixation","<p class=""fixation"">+</p>","null","null","html-keyboard-response","59","2.0.0","4","bzm","","","","","",""
"item","<p class=""stimulus"">__________ | ____ | _____ | _________ | ____</p>","768"," ","html-keyboard-response","60","2.0.0","4","bzm","exp_item","s0","sr","ps","",""
"item","<p class=""stimulus"">The horses | ____ | _____ | _________ | ____</p>","470"," ","html-keyboard-response","61","2.0.0","4","bzm","exp_item","s1","sr","ps","",""
"item","<p class=""stimulus"">__________ | that | _____ | _________ | ____</p>","539"," ","html-keyboard-response","62","2.0.0","4","bzm","exp_item","s2","sr","ps","",""
"item","<p class=""stimulus"">__________ | ____ | chase | _________ | ____</p>","907"," ","html-keyboard-response","63","2.0.0","4","bzm","exp_item","s3","sr","ps","",""
"item","<p class=""stimulus"">__________ | ____ | _____ | the zebra | ____</p>","592"," ","html-keyboard-response","64","2.0.0","4","bzm","exp_item","s4","sr","ps","",""
"item","<p class=""stimulus"">__________ | ____ | _____ | _________ | fall</p>","701"," ","html-keyboard-response","65","2.0.0","4","bzm","exp_item","s5","sr","ps","",""
"question","<h2>Do the horses that chase the zebra fall?</h2>","475","1","html-button-response","66","2.0.0","4","bzm","exp_item","","sr","ps","1","1"
"fixation","<p class=""fixation"">+</p>","null","null","html-keyboard-response","67","2.0.0","4","bzm","","","","","",""
"item","<p class=""stimulus"">_______ | ____ | ______ | ________ | _____</p>","521"," ","html-keyboard-response","68","2.0.0","4","bzm","exp_item","s0","sr","sp","",""
"item","<p class=""stimulus"">The dog | ____ | ______ | ________ | _____</p>","698"," ","html-keyboard-response","69","2.0.0","4","bzm","exp_item","s1","sr","sp","",""
"item","<p class=""stimulus"">_______ | that | ______ | ________ | _____</p>","657"," ","html-keyboard-response","70","2.0.0","4","bzm","exp_item","s2","sr","sp","",""
"item","<p class=""stimulus"">_______ | ____ | pushes | ________ | _____</p>","497"," ","html-keyboard-response","71","2.0.0","4","bzm","exp_item","s3","sr","sp","",""
"item","<p class=""stimulus"">_______ | ____ | ______ | the cats | _____</p>","600"," ","html-keyboard-response","72","2.0.0","4","bzm","exp_item","s4","sr","sp","",""
"item","<p class=""stimulus"">_______ | ____ | ______ | ________ | cries</p>","565"," ","html-keyboard-response","73","2.0.0","4","bzm","exp_item","s5","sr","sp","",""
"question","<h2>Do the cats that push the dog cry?</h2>","464","1","html-button-response","74","2.0.0","4","bzm","exp_item","","sr","sp","0","1"
"fixation","<p class=""fixation"">+</p>","null","null","html-keyboard-response","75","2.0.0","4","bzm","","","","","",""
"item","<p class=""stimulus"">__________ | ___ | ______ | __________ | _______</p>","912"," ","html-keyboard-response","76","2.0.0","4","bzm","fill_item","s0","sr","ss","",""
"item","<p class=""stimulus"">The singer | ___ | ______ | __________ | _______</p>","554"," ","html-keyboard-response","77","2.0.0","4","bzm","fill_item","s1","sr","ss","",""
"item","<p class=""stimulus"">__________ | who | ______ | __________ | _______</p>","608"," ","html-keyboard-response","78","2.0.0","4","bzm","fill_item","s2","sr","ss","",""
"item","<p class=""stimulus"">__________ | ___ | throws |___________ | _______</p>","494"," ","html-keyboard-response","79","2.0.0","5","bzm","fill_item","s3","sr","ss","",""
"item","<p class=""stimulus"">__________ | ___ | ______ | the guitar | _______</p>","785"," ","html-keyboard-response","80","2.0.0","5","bzm","fill_item","s4","sr","ss","",""
"item","<p class=""stimulus"">__________ | ___ | ______ | __________ | screams</p>","513"," ","html-keyboard-response","81","2.0.0","5","bzm","fill_item","s5","sr","ss","",""
"question","<h2>Does the singer who throws the guitar scream?</h2>","1208","0","html-button-response","82","2.0.0","5","bzm","fill_item","","sr","ss","1","0"
"fixation","<p class=""fixation"">+</p>","null","null","html-keyboard-response","83","2.0.0","5","bzm","","","","","",""
"item","<p class=""stimulus"">__________ | ____ | __________ | ______ | ___</p>","589"," ","html-keyboard-response","84","2.0.0","5","bzm","exp_item","s0","or","pp","",""
"item","<p class=""stimulus"">The zebras | ____ | __________ | ______ | ___</p>","1003"," ","html-keyboard-response","85","2.0.0","5","bzm","exp_item","s1","or","pp","",""
"item","<p class=""stimulus"">__________ | that | __________ | ______ | ___</p>","640"," ","html-keyboard-response","86","2.0.0","5","bzm","exp_item","s2","or","pp","",""
"item","<p class=""stimulus"">__________ | ____ | the horses | ______ | ___</p>","740"," ","html-keyboard-response","87","2.0.0","5","bzm","exp_item","s3","or","pp","",""
"item","<p class=""stimulus"">__________ | ____ | __________ | follow | ___</p>","619"," ","html-keyboard-response","88","2.0.0","5","bzm","exp_item","s4","or","pp","",""
"item","<p class=""stimulus"">__________ | ____ | __________ | ______ | run</p>","596"," ","html-keyboard-response","89","2.0.0","5","bzm","exp_item","s5","or","pp","",""
"question","<h2>Do the zebras that the horses follow run?</h2>","509","0","html-button-response","90","2.0.0","5","bzm","exp_item","","or","pp","1","0"
"fixation","<p class=""fixation"">+</p>","null","null","html-keyboard-response","91","2.0.0","5","bzm","","","","","",""
"item","<p class=""stimulus"">________ | ____ | ____ | ________ | ___</p>","604"," ","html-keyboard-response","92","2.0.0","5","bzm","exp_item","s0","sr","pp","",""
"item","<p class=""stimulus"">The dogs | ____ | ____ | ________ | ___</p>","694"," ","html-keyboard-response","93","2.0.0","5","bzm","exp_item","s1","sr","pp","",""
"item","<p class=""stimulus"">________ | that | ____ | ________ | ___</p>","746"," ","html-keyboard-response","94","2.0.0","5","bzm","exp_item","s2","sr","pp","",""
"item","<p class=""stimulus"">________ | ____ | push | ________ | ___</p>","748"," ","html-keyboard-response","95","2.0.0","6","bzm","exp_item","s3","sr","pp","",""
"item","<p class=""stimulus"">________ | ____ | ____ | the cats | ___</p>","462"," ","html-keyboard-response","96","2.0.0","6","bzm","exp_item","s4","sr","pp","",""
"item","<p class=""stimulus"">________ | ____ | ____ | ________ | cry</p>","615"," ","html-keyboard-response","97","2.0.0","6","bzm","exp_item","s5","sr","pp","",""
"question","<h2>Do the cats that push the dogs cry?</h2>","548","1","html-button-response","98","2.0.0","6","bzm","exp_item","","sr","pp","0","1"
