"task","rt","response","trial_type","trial_index","plugin_version","time_elapsed","part_id","age","gender","lang_ca","lang_sp","lang_en","stimulus","item_type","segment","clause_type","number","correct_answer","answer"
"survey","5745","{""age"":""25"",""gender"":""female"",""lang_ca"":""true"",""lang_sp"":""true""}","survey-html-form","1","2.0.0","5748","qkh","25","female","true","true","","","","","","","",""
"fixation","null","null","html-keyboard-response","3","2.0.0","5749","qkh","25","female","true","true","","<p class=""fixation"">+</p>","","","","","",""
"item","536"," ","html-keyboard-response","4","2.0.0","5750","qkh","25","female","true","true","","<p class=""stimulus"">________ | ___ | _____ | _______ | _____</p>","fill_item","s0","sr","ss","",""
"item","587"," ","html-keyboard-response","5","2.0.0","5750","qkh","25","female","true","true","","<p class=""stimulus"">The chef | ___ | _____ | _______ | _____</p>","fill_item","s1","sr","ss","",""
"item","813"," ","html-keyboard-response","6","2.0.0","5750","qkh","25","female","true","true","","<p class=""stimulus"">________ | who | _____ | _______ | _____</p>","fill_item","s2","sr","ss","",""
"item","548"," ","html-keyboard-response","7","2.0.0","5750","qkh","25","female","true","true","","<p class=""stimulus"">________ | ___ | kicks |________ | _____</p>","fill_item","s3","sr","ss","",""
"item","546"," ","html-keyboard-response","8","2.0.0","5750","qkh","25","female","true","true","","<p class=""stimulus"">________ | ___ | _____ | the box | _____</p>","fill_item","s4","sr","ss","",""
"item","587"," ","html-keyboard-response","9","2.0.0","5751","qkh","25","female","true","true","","<p class=""stimulus"">________ | ___ | _____ | _______ | cries</p>","fill_item","s5","sr","ss","",""
"question","611","0","html-button-response","10","2.0.0","5751","qkh","25","female","true","true","","<h2>Does the chef who kicks the box cry?</h2>","","","sr","ss","true","true"
"fixation","null","null","html-keyboard-response","11","2.0.0","5751","qkh","25","female","true","true","","<p class=""fixation"">+</p>","","","","","",""
"item","603"," ","html-keyboard-response","12","2.0.0","5751","qkh","25","female","true","true","","<p class=""stimulus"">________ | ___ | _______ | _______ | _____</p>","fill_item","s0","sr","ss","",""
"item","911"," ","html-keyboard-response","13","2.0.0","5752","qkh","25","female","true","true","","<p class=""stimulus"">The chef | ___ | _______ | _______ | _____</p>","fill_item","s1","sr","ss","",""
"item","703"," ","html-keyboard-response","14","2.0.0","5752","qkh","25","female","true","true","","<p class=""stimulus"">________ | who | _______ | _______ | _____</p>","fill_item","s2","sr","ss","",""
"item","932"," ","html-keyboard-response","15","2.0.0","5752","qkh","25","female","true","true","","<p class=""stimulus"">________ | ___ | carries |________ | _____</p>","fill_item","s3","sr","ss","",""
"item","619"," ","html-keyboard-response","16","2.0.0","5752","qkh","25","female","true","true","","<p class=""stimulus"">________ | ___ | _______ | the box | _____</p>","fill_item","s4","sr","ss","",""
"item","580"," ","html-keyboard-response","17","2.0.0","5752","qkh","25","female","true","true","","<p class=""stimulus"">________ | ___ | _______ | _______ | falls</p>","fill_item","s5","sr","ss","",""
"question","573","0","html-button-response","18","2.0.0","5752","qkh","25","female","true","true","","<h2>Does the chef who carries the box fall?</h2>","","","sr","ss","true","true"
"fixation","null","null","html-keyboard-response","19","2.0.0","5752","qkh","25","female","true","true","","<p class=""fixation"">+</p>","","","","","",""
"item","641"," ","html-keyboard-response","20","2.0.0","5752","qkh","25","female","true","true","","<p class=""stimulus"">_________ | ___ | ______ | __________ | ______</p>","fill_item","s0","sr","ss","",""
"item","686"," ","html-keyboard-response","21","2.0.0","5752","qkh","25","female","true","true","","<p class=""stimulus"">The woman | ___ | ______ | __________ | ______</p>","fill_item","s1","sr","ss","",""
"item","494"," ","html-keyboard-response","22","2.0.0","5752","qkh","25","female","true","true","","<p class=""stimulus"">_________ | who | ______ | __________ | ______</p>","fill_item","s2","sr","ss","",""
"item","873"," ","html-keyboard-response","23","2.0.0","5752","qkh","25","female","true","true","","<p class=""stimulus"">_________ | ___ | throws |___________ | ______</p>","fill_item","s3","sr","ss","",""
"item","545"," ","html-keyboard-response","24","2.0.0","5753","qkh","25","female","true","true","","<p class=""stimulus"">_________ | ___ | ______ | the letter | ______</p>","fill_item","s4","sr","ss","",""
"item","486"," ","html-keyboard-response","25","2.0.0","5753","qkh","25","female","true","true","","<p class=""stimulus"">_________ | ___ | ______ | __________ | screams</p>","fill_item","s5","sr","ss","",""
"question","670","0","html-button-response","26","2.0.0","5753","qkh","25","female","true","true","","<h2>Does the woman who throws the letter smile?</h2>","","","sr","ss","false","true"
"fixation","null","null","html-keyboard-response","27","2.0.0","5753","qkh","25","female","true","true","","<p class=""fixation"">+</p>","","","","","",""
"item","734"," ","html-keyboard-response","28","2.0.0","5753","qkh","25","female","true","true","","<p class=""stimulus"">__________ | ____ | _________ | _______ | ___</p>","exp_item","s0","or","ps","",""
"item","857"," ","html-keyboard-response","29","2.0.0","5753","qkh","25","female","true","true","","<p class=""stimulus"">The zebras | ____ | _________ | _______ | ___</p>","exp_item","s1","or","ps","",""
"item","566"," ","html-keyboard-response","30","2.0.0","5753","qkh","25","female","true","true","","<p class=""stimulus"">__________ | that | _________ | _______ | ___</p>","exp_item","s2","or","ps","",""
"item","443"," ","html-keyboard-response","31","2.0.0","5753","qkh","25","female","true","true","","<p class=""stimulus"">__________ | ____ | the horse | _______ | ___</p>","exp_item","s3","or","ps","",""
"item","413"," ","html-keyboard-response","32","2.0.0","5753","qkh","25","female","true","true","","<p class=""stimulus"">__________ | ____ | _________ | follows | ___</p>","exp_item","s4","or","ps","",""
"item","486"," ","html-keyboard-response","33","2.0.0","5753","qkh","25","female","true","true","","<p class=""stimulus"">__________ | ____ | _________ | _______ | run</p>","exp_item","s5","or","ps","",""
"question","799","0","html-button-response","34","2.0.0","5753","qkh","25","female","true","true","","<h2>Do the zebras that the horse follows run?</h2>","","","or","ps","true","true"
"fixation","null","null","html-keyboard-response","35","2.0.0","5753","qkh","25","female","true","true","","<p class=""fixation"">+</p>","","","","","",""
"item","631"," ","html-keyboard-response","36","2.0.0","5753","qkh","25","female","true","true","","<p class=""stimulus"">_________ | ___ | ______ | __________ | ______</p>","fill_item","s0","sr","ss","",""
"item","683"," ","html-keyboard-response","37","2.0.0","5754","qkh","25","female","true","true","","<p class=""stimulus"">The woman | ___ | ______ | __________ | ______</p>","fill_item","s1","sr","ss","",""
"item","694"," ","html-keyboard-response","38","2.0.0","5754","qkh","25","female","true","true","","<p class=""stimulus"">_________ | who | ______ | __________ | ______</p>","fill_item","s2","sr","ss","",""
"item","641"," ","html-keyboard-response","39","2.0.0","5754","qkh","25","female","true","true","","<p class=""stimulus"">_________ | ___ | stores |___________ | ______</p>","fill_item","s3","sr","ss","",""
"item","594"," ","html-keyboard-response","40","2.0.0","5754","qkh","25","female","true","true","","<p class=""stimulus"">_________ | ___ | ______ | the letter | ______</p>","fill_item","s4","sr","ss","",""
"item","1082"," ","html-keyboard-response","41","2.0.0","5754","qkh","25","female","true","true","","<p class=""stimulus"">_________ | ___ | ______ | __________ | murmurs</p>","fill_item","s5","sr","ss","",""
"question","568","0","html-button-response","42","2.0.0","5754","qkh","25","female","true","true","","<h2>Does the woman who stores the letter murmur?</h2>","","","sr","ss","true","true"
"fixation","null","null","html-keyboard-response","43","2.0.0","5754","qkh","25","female","true","true","","<p class=""fixation"">+</p>","","","","","",""
"item","761"," ","html-keyboard-response","44","2.0.0","5754","qkh","25","female","true","true","","<p class=""stimulus"">________ | ____ | ________ | ___ | _____</p>","exp_item","s0","or","pp","",""
"item","548"," ","html-keyboard-response","45","2.0.0","5754","qkh","25","female","true","true","","<p class=""stimulus"">The cats | ____ | ________ | ___ | _____</p>","exp_item","s1","or","pp","",""
"item","597"," ","html-keyboard-response","46","2.0.0","5754","qkh","25","female","true","true","","<p class=""stimulus"">________ | that | ________ | ___ | _____</p>","exp_item","s2","or","pp","",""
"item","722"," ","html-keyboard-response","47","2.0.0","5755","qkh","25","female","true","true","","<p class=""stimulus"">________ | ____ | the dogs | ___ | _____</p>","exp_item","s3","or","pp","",""
"item","740"," ","html-keyboard-response","48","2.0.0","5755","qkh","25","female","true","true","","<p class=""stimulus"">________ | ____ | ________ | hug | _____</p>","exp_item","s4","or","pp","",""
"item","569"," ","html-keyboard-response","49","2.0.0","5755","qkh","25","female","true","true","","<p class=""stimulus"">________ | ____ | ________ | ___ | smile</p>","exp_item","s5","or","pp","",""
"question","554","0","html-button-response","50","2.0.0","5755","qkh","25","female","true","true","","<h2>Do the cats that the dogs hug smile?</h2>","","","or","pp","true","true"
"fixation","null","null","html-keyboard-response","51","2.0.0","5755","qkh","25","female","true","true","","<p class=""fixation"">+</p>","","","","","",""
"item","567"," ","html-keyboard-response","52","2.0.0","5755","qkh","25","female","true","true","","<p class=""stimulus"">__________ | ____ | __________ | _____ | ____</p>","exp_item","s0","or","pp","",""
"item","551"," ","html-keyboard-response","53","2.0.0","5755","qkh","25","female","true","true","","<p class=""stimulus"">The horses | ____ | __________ | _____ | ____</p>","exp_item","s1","or","pp","",""
"item","882"," ","html-keyboard-response","54","2.0.0","5758","qkh","25","female","true","true","","<p class=""stimulus"">__________ | that | __________ | _____ | ____</p>","exp_item","s2","or","pp","",""
"item","678"," ","html-keyboard-response","55","2.0.0","5758","qkh","25","female","true","true","","<p class=""stimulus"">__________ | ____ | the zebras | _____ | ____</p>","exp_item","s3","or","pp","",""
"item","552"," ","html-keyboard-response","56","2.0.0","5758","qkh","25","female","true","true","","<p class=""stimulus"">__________ | ____ | __________ | chase | ___ </p>","exp_item","s4","or","pp","",""
"item","711"," ","html-keyboard-response","57","2.0.0","5758","qkh","25","female","true","true","","<p class=""stimulus"">__________ | ____ | __________ | _____ | fall</p>","exp_item","s5","or","pp","",""
"question","572","0","html-button-response","58","2.0.0","5758","qkh","25","female","true","true","","<h2>Do the horses that the zebras chase fall?</h2>","","","or","pp","true","true"
"fixation","null","null","html-keyboard-response","59","2.0.0","5758","qkh","25","female","true","true","","<p class=""fixation"">+</p>","","","","","",""
"item","633"," ","html-keyboard-response","60","2.0.0","5758","qkh","25","female","true","true","","<p class=""stimulus"">_________ | ____ | _______ | __________ | ____</p>","exp_item","s0","sr","sp","",""
"item","944"," ","html-keyboard-response","61","2.0.0","5759","qkh","25","female","true","true","","<p class=""stimulus"">The zebra | ____ | _______ | __________ | ____</p>","exp_item","s1","sr","sp","",""
"item","757"," ","html-keyboard-response","62","2.0.0","5759","qkh","25","female","true","true","","<p class=""stimulus"">_________ | that | _______ | __________ | ____</p>","exp_item","s2","sr","sp","",""
"item","650"," ","html-keyboard-response","63","2.0.0","5759","qkh","25","female","true","true","","<p class=""stimulus"">_________ | ____ | follows | __________ | ____</p>","exp_item","s3","sr","sp","",""
"item","729"," ","html-keyboard-response","64","2.0.0","5759","qkh","25","female","true","true","","<p class=""stimulus"">_________ | ____ | _______ | the horses | ____</p>","exp_item","s4","sr","sp","",""
"item","600"," ","html-keyboard-response","65","2.0.0","5759","qkh","25","female","true","true","","<p class=""stimulus"">_________ | ____ | _______ | __________ | runs</p>","exp_item","s5","sr","sp","",""
"question","782","1","html-button-response","66","2.0.0","5759","qkh","25","female","true","true","","<h2>Does the zebra that follows the horses run?</h2>","","","sr","sp","true","false"
"fixation","null","null","html-keyboard-response","67","2.0.0","5759","qkh","25","female","true","true","","<p class=""fixation"">+</p>","","","","","",""
"item","542"," ","html-keyboard-response","68","2.0.0","5759","qkh","25","female","true","true","","<p class=""stimulus"">________ | ____ | ___ | ________ | _____</p>","exp_item","s0","sr","pp","",""
"item","611"," ","html-keyboard-response","69","2.0.0","5759","qkh","25","female","true","true","","<p class=""stimulus"">The cats | ____ | ___ | ________ | _____</p>","exp_item","s1","sr","pp","",""
"item","632"," ","html-keyboard-response","70","2.0.0","5759","qkh","25","female","true","true","","<p class=""stimulus"">________ | that | ___ | ________ | _____</p>","exp_item","s2","sr","pp","",""
"item","618"," ","html-keyboard-response","71","2.0.0","5759","qkh","25","female","true","true","","<p class=""stimulus"">________ | ____ | hug | ________ | _____</p>","exp_item","s3","sr","pp","",""
"item","473"," ","html-keyboard-response","72","2.0.0","5759","qkh","25","female","true","true","","<p class=""stimulus"">________ | ____ | ___ | the dogs | _____</p>","exp_item","s4","sr","pp","",""
"item","591"," ","html-keyboard-response","73","2.0.0","5759","qkh","25","female","true","true","","<p class=""stimulus"">________ | ____ | ___ | ________ | smile</p>","exp_item","s5","sr","pp","",""
"question","659","1","html-button-response","74","2.0.0","5760","qkh","25","female","true","true","","<h2>Do the cats that hug the dogs smile?</h2>","","","sr","pp","true","false"
"fixation","null","null","html-keyboard-response","75","2.0.0","5760","qkh","25","female","true","true","","<p class=""fixation"">+</p>","","","","","",""
"item","569"," ","html-keyboard-response","76","2.0.0","5760","qkh","25","female","true","true","","<p class=""stimulus"">_________ | ____ | ________ | _______ | ____</p>","exp_item","s0","or","ss","",""
"item","567"," ","html-keyboard-response","77","2.0.0","5760","qkh","25","female","true","true","","<p class=""stimulus"">The zebra | ____ | ________ | _______ | ____</p>","exp_item","s1","or","ss","",""
"item","561"," ","html-keyboard-response","78","2.0.0","5760","qkh","25","female","true","true","","<p class=""stimulus"">_________ | that | ________ | _______ | ____</p>","exp_item","s2","or","ss","",""
"item","466"," ","html-keyboard-response","79","2.0.0","5760","qkh","25","female","true","true","","<p class=""stimulus"">_________ | ____ | the horse| _______ | ____</p>","exp_item","s3","or","ss","",""
"item","534"," ","html-keyboard-response","80","2.0.0","5760","qkh","25","female","true","true","","<p class=""stimulus"">_________ | ____ | ________ | follows | ____</p>","exp_item","s4","or","ss","",""
"item","996"," ","html-keyboard-response","81","2.0.0","5760","qkh","25","female","true","true","","<p class=""stimulus"">_________ | ____ | ________ | _______ | runs</p>","exp_item","s5","or","ss","",""
"question","585","1","html-button-response","82","2.0.0","5760","qkh","25","female","true","true","","<h2>Does the zebra that the horse follows run?</h2>","","","or","ss","true","false"
"fixation","null","null","html-keyboard-response","83","2.0.0","5760","qkh","25","female","true","true","","<p class=""fixation"">+</p>","","","","","",""
"item","425"," ","html-keyboard-response","84","2.0.0","5760","qkh","25","female","true","true","","<p class=""stimulus"">__________ | ___ | ______ | __________ | _______</p>","fill_item","s0","sr","ss","",""
"item","606"," ","html-keyboard-response","85","2.0.0","5760","qkh","25","female","true","true","","<p class=""stimulus"">The singer | ___ | ______ | __________ | _______</p>","fill_item","s1","sr","ss","",""
"item","510"," ","html-keyboard-response","86","2.0.0","5760","qkh","25","female","true","true","","<p class=""stimulus"">__________ | who | ______ | __________ | _______</p>","fill_item","s2","sr","ss","",""
"item","532"," ","html-keyboard-response","87","2.0.0","5761","qkh","25","female","true","true","","<p class=""stimulus"">__________ | ___ | throws |___________ | _______</p>","fill_item","s3","sr","ss","",""
"item","521"," ","html-keyboard-response","88","2.0.0","5761","qkh","25","female","true","true","","<p class=""stimulus"">__________ | ___ | ______ | the guitar | _______</p>","fill_item","s4","sr","ss","",""
"item","762"," ","html-keyboard-response","89","2.0.0","5761","qkh","25","female","true","true","","<p class=""stimulus"">__________ | ___ | ______ | __________ | screams</p>","fill_item","s5","sr","ss","",""
"question","474","1","html-button-response","90","2.0.0","5761","qkh","25","female","true","true","","<h2>Does the singer who throws the guitar scream?</h2>","","","sr","ss","true","false"
"fixation","null","null","html-keyboard-response","91","2.0.0","5761","qkh","25","female","true","true","","<p class=""fixation"">+</p>","","","","","",""
"item","610"," ","html-keyboard-response","92","2.0.0","5761","qkh","25","female","true","true","","<p class=""stimulus"">_______ | ____ | ________ | ____ | _____</p>","exp_item","s0","or","sp","",""
"item","1196"," ","html-keyboard-response","93","2.0.0","5761","qkh","25","female","true","true","","<p class=""stimulus"">The dog | ____ | ________ | ____ | _____</p>","exp_item","s1","or","sp","",""
"item","967"," ","html-keyboard-response","94","2.0.0","5761","qkh","25","female","true","true","","<p class=""stimulus"">_______ | that | ________ | ____ | _____</p>","exp_item","s2","or","sp","",""
"item","604"," ","html-keyboard-response","95","2.0.0","5761","qkh","25","female","true","true","","<p class=""stimulus"">_______ | ____ | the cats | ____ | _____</p>","exp_item","s3","or","sp","",""
"item","611"," ","html-keyboard-response","96","2.0.0","5762","qkh","25","female","true","true","","<p class=""stimulus"">_______ | ____ | ________ | push | _____</p>","exp_item","s4","or","sp","",""
"item","559"," ","html-keyboard-response","97","2.0.0","5762","qkh","25","female","true","true","","<p class=""stimulus"">_______ | ____ | ________ | ____ | cries</p>","exp_item","s5","or","sp","",""
"question","567","1","html-button-response","98","2.0.0","5762","qkh","25","female","true","true","","<h2>Do the cats that the dog pushes cry?</h2>","","","or","sp","false","false"
"fixation","null","null","html-keyboard-response","99","2.0.0","5762","qkh","25","female","true","true","","<p class=""fixation"">+</p>","","","","","",""
"item","533"," ","html-keyboard-response","100","2.0.0","5762","qkh","25","female","true","true","","<p class=""stimulus"">________ | ____ | _______ | ______ | ___</p>","exp_item","s0","or","ps","",""
"item","651"," ","html-keyboard-response","101","2.0.0","5762","qkh","25","female","true","true","","<p class=""stimulus"">The dogs | ____ | _______ | ______ | ___</p>","exp_item","s1","or","ps","",""
"item","577"," ","html-keyboard-response","102","2.0.0","5762","qkh","25","female","true","true","","<p class=""stimulus"">________ | that | _______ | ______ | ___</p>","exp_item","s2","or","ps","",""
"item","688"," ","html-keyboard-response","103","2.0.0","5762","qkh","25","female","true","true","","<p class=""stimulus"">________ | ____ | the cat | ______ | ___</p>","exp_item","s3","or","ps","",""
"item","605"," ","html-keyboard-response","104","2.0.0","5762","qkh","25","female","true","true","","<p class=""stimulus"">________ | ____ | _______ | pushes | ___</p>","exp_item","s4","or","ps","",""
"item","479"," ","html-keyboard-response","105","2.0.0","5762","qkh","25","female","true","true","","<p class=""stimulus"">________ | ____ | _______ | ______ | cry</p>","exp_item","s5","or","ps","",""
"question","654","0","html-button-response","106","2.0.0","5762","qkh","25","female","true","true","","<h2>Does the cat that the dogs push cry?</h2>","","","or","ps","false","true"
"fixation","null","null","html-keyboard-response","107","2.0.0","5762","qkh","25","female","true","true","","<p class=""fixation"">+</p>","","","","","",""
"item","597"," ","html-keyboard-response","108","2.0.0","5762","qkh","25","female","true","true","","<p class=""stimulus"">_________ | ___ | _____ | __________ | _______</p>","fill_item","s0","sr","ss","",""
"item","605"," ","html-keyboard-response","109","2.0.0","5762","qkh","25","female","true","true","","<p class=""stimulus"">The woman | ___ | _____ | __________ | _______</p>","fill_item","s1","sr","ss","",""
"item","579"," ","html-keyboard-response","110","2.0.0","5762","qkh","25","female","true","true","","<p class=""stimulus"">_________ | who | _____ | __________ | _______</p>","fill_item","s2","sr","ss","",""
"item","537"," ","html-keyboard-response","111","2.0.0","5763","qkh","25","female","true","true","","<p class=""stimulus"">_________ | ___ | reads |___________ | _______</p>","fill_item","s3","sr","ss","",""
"item","633"," ","html-keyboard-response","112","2.0.0","5763","qkh","25","female","true","true","","<p class=""stimulus"">_________ | ___ | _____ | the letter | _______</p>","fill_item","s4","sr","ss","",""
"item","516"," ","html-keyboard-response","113","2.0.0","5763","qkh","25","female","true","true","","<p class=""stimulus"">_________ | ___ | _____ | __________ | screams</p>","fill_item","s5","sr","ss","",""
"question","596","1","html-button-response","114","2.0.0","5763","qkh","25","female","true","true","","<h2>Does the woman who reads the letter cry?</h2>","","","sr","ss","false","false"
"fixation","null","null","html-keyboard-response","115","2.0.0","5763","qkh","25","female","true","true","","<p class=""fixation"">+</p>","","","","","",""
"item","817"," ","html-keyboard-response","116","2.0.0","5763","qkh","25","female","true","true","","<p class=""stimulus"">_________ | ____ | _______ | _________ | ____</p>","exp_item","s0","sr","ss","",""
"item","1072"," ","html-keyboard-response","117","2.0.0","5763","qkh","25","female","true","true","","<p class=""stimulus"">The zebra | ____ | _______ | _________ | ____</p>","exp_item","s1","sr","ss","",""
"item","602"," ","html-keyboard-response","118","2.0.0","5763","qkh","25","female","true","true","","<p class=""stimulus"">_________ | that | _______ | _________ | ____</p>","exp_item","s2","sr","ss","",""
"item","562"," ","html-keyboard-response","119","2.0.0","5763","qkh","25","female","true","true","","<p class=""stimulus"">_________ | ____ | follows | _________ | ____</p>","exp_item","s3","sr","ss","",""
"item","630"," ","html-keyboard-response","120","2.0.0","5763","qkh","25","female","true","true","","<p class=""stimulus"">_________ | ____ | _______ | the horse | ____</p>","exp_item","s4","sr","ss","",""
"item","668"," ","html-keyboard-response","121","2.0.0","5763","qkh","25","female","true","true","","<p class=""stimulus"">_________ | ____ | _______ | _________ | runs</p>","exp_item","s5","sr","ss","",""
"question","602","1","html-button-response","122","2.0.0","5763","qkh","25","female","true","true","","<h2>Does the zebra that follows the horse run?</h2>","","","sr","ss","true","false"
"fixation","null","null","html-keyboard-response","123","2.0.0","5763","qkh","25","female","true","true","","<p class=""fixation"">+</p>","","","","","",""
"item","554"," ","html-keyboard-response","124","2.0.0","5763","qkh","25","female","true","true","","<p class=""stimulus"">__________ | ____ | _____ | _________ | _____</p>","exp_item","s0","sr","ps","",""
"item","529"," ","html-keyboard-response","125","2.0.0","5763","qkh","25","female","true","true","","<p class=""stimulus"">The horses | ____ | _____ | _________ | _____</p>","exp_item","s1","sr","ps","",""
"item","745"," ","html-keyboard-response","126","2.0.0","5763","qkh","25","female","true","true","","<p class=""stimulus"">__________ | that | _____ | _________ | _____</p>","exp_item","s2","sr","ps","",""
"item","740"," ","html-keyboard-response","127","2.0.0","5764","qkh","25","female","true","true","","<p class=""stimulus"">__________ | ____ | chase | _________ | _____</p>","exp_item","s3","sr","ps","",""
"item","751"," ","html-keyboard-response","128","2.0.0","5764","qkh","25","female","true","true","","<p class=""stimulus"">__________ | ____ | _____ | the zebra | ____ </p>","exp_item","s4","sr","ps","",""
"item","779"," ","html-keyboard-response","129","2.0.0","5764","qkh","25","female","true","true","","<p class=""stimulus"">__________ | ____ | _____ | _________ | fall </p>","exp_item","s5","sr","ps","",""
"question","722","0","html-button-response","130","2.0.0","5764","qkh","25","female","true","true","","<h2>Do the horses that chase the zebra fall?</h2>","","","sr","ps","true","true"
"fixation","null","null","html-keyboard-response","131","2.0.0","5764","qkh","25","female","true","true","","<p class=""fixation"">+</p>","","","","","",""
"item","733"," ","html-keyboard-response","132","2.0.0","5764","qkh","25","female","true","true","","<p class=""stimulus"">_______ | ____ | _______ | ______ | _____</p>","exp_item","s0","or","ss","",""
"item","539"," ","html-keyboard-response","133","2.0.0","5764","qkh","25","female","true","true","","<p class=""stimulus"">The dog | ____ | _______ | ______ | _____</p>","exp_item","s1","or","ss","",""
"item","551"," ","html-keyboard-response","134","2.0.0","5764","qkh","25","female","true","true","","<p class=""stimulus"">_______ | that | _______ | ______ | _____</p>","exp_item","s2","or","ss","",""
"item","563"," ","html-keyboard-response","135","2.0.0","5764","qkh","25","female","true","true","","<p class=""stimulus"">_______ | ____ | the cat | ______ | _____</p>","exp_item","s3","or","ss","",""
"item","625"," ","html-keyboard-response","136","2.0.0","5764","qkh","25","female","true","true","","<p class=""stimulus"">_______ | ____ | _______ | pushes | _____</p>","exp_item","s4","or","ss","",""
"item","629"," ","html-keyboard-response","137","2.0.0","5764","qkh","25","female","true","true","","<p class=""stimulus"">_______ | ____ | _______ | ______ | cries</p>","exp_item","s5","or","ss","",""
"question","1204","1","html-button-response","138","2.0.0","5764","qkh","25","female","true","true","","<h2>Does the cat that the dog pushes cry?</h2>","","","or","ss","false","false"
"fixation","null","null","html-keyboard-response","139","2.0.0","5764","qkh","25","female","true","true","","<p class=""fixation"">+</p>","","","","","",""
"item","503"," ","html-keyboard-response","140","2.0.0","5764","qkh","25","female","true","true","","<p class=""stimulus"">__________ | ___ | ______ | __________ | _______</p>","fill_item","s0","sr","ss","",""
"item","603"," ","html-keyboard-response","141","2.0.0","5764","qkh","25","female","true","true","","<p class=""stimulus"">The singer | ___ | ______ | __________ | _______</p>","fill_item","s1","sr","ss","",""
"item","664"," ","html-keyboard-response","142","2.0.0","5764","qkh","25","female","true","true","","<p class=""stimulus"">__________ | who | ______ | __________ | _______</p>","fill_item","s2","sr","ss","",""
"item","815"," ","html-keyboard-response","143","2.0.0","5765","qkh","25","female","true","true","","<p class=""stimulus"">__________ | ___ | stores |___________ | _______</p>","fill_item","s3","sr","ss","",""
"item","487"," ","html-keyboard-response","144","2.0.0","5765","qkh","25","female","true","true","","<p class=""stimulus"">__________ | ___ | ______ | the guitar | _______</p>","fill_item","s4","sr","ss","",""
"item","567"," ","html-keyboard-response","145","2.0.0","5765","qkh","25","female","true","true","","<p class=""stimulus"">__________ | ___ | ______ | __________ | murmurs</p>","fill_item","s5","sr","ss","",""
"question","968","1","html-button-response","146","2.0.0","5765","qkh","25","female","true","true","","<h2>Does the singer who stores the guitar cry?</h2>","","","sr","ss","false","false"
"fixation","null","null","html-keyboard-response","147","2.0.0","5765","qkh","25","female","true","true","","<p class=""fixation"">+</p>","","","","","",""
"item","565"," ","html-keyboard-response","148","2.0.0","5765","qkh","25","female","true","true","","<p class=""stimulus"">__________ | ____ | __________ | ______ | ___</p>","exp_item","s0","or","pp","",""
"item","546"," ","html-keyboard-response","149","2.0.0","5765","qkh","25","female","true","true","","<p class=""stimulus"">The zebras | ____ | __________ | ______ | ___</p>","exp_item","s1","or","pp","",""
"item","528"," ","html-keyboard-response","150","2.0.0","5765","qkh","25","female","true","true","","<p class=""stimulus"">__________ | that | __________ | ______ | ___</p>","exp_item","s2","or","pp","",""
"item","497"," ","html-keyboard-response","151","2.0.0","5765","qkh","25","female","true","true","","<p class=""stimulus"">__________ | ____ | the horses | ______ | ___</p>","exp_item","s3","or","pp","",""
"item","578"," ","html-keyboard-response","152","2.0.0","5765","qkh","25","female","true","true","","<p class=""stimulus"">__________ | ____ | __________ | follow | ___</p>","exp_item","s4","or","pp","",""
"item","564"," ","html-keyboard-response","153","2.0.0","5765","qkh","25","female","true","true","","<p class=""stimulus"">__________ | ____ | __________ | ______ | run</p>","exp_item","s5","or","pp","",""
"question","501","0","html-button-response","154","2.0.0","5765","qkh","25","female","true","true","","<h2>Do the zebras that the horses follow run?</h2>","","","or","pp","true","true"
"fixation","null","null","html-keyboard-response","155","2.0.0","5765","qkh","25","female","true","true","","<p class=""fixation"">+</p>","","","","","",""
"item","628"," ","html-keyboard-response","156","2.0.0","5765","qkh","25","female","true","true","","<p class=""stimulus"">_________ | ____ | ______ | __________ | ______</p>","exp_item","s0","sr","sp","",""
"item","534"," ","html-keyboard-response","157","2.0.0","5765","qkh","25","female","true","true","","<p class=""stimulus"">The horse | ____ | ______ | __________ | ______</p>","exp_item","s1","sr","sp","",""
"item","784"," ","html-keyboard-response","158","2.0.0","5765","qkh","25","female","true","true","","<p class=""stimulus"">_________ | that | ______ | __________ | ______</p>","exp_item","s2","sr","sp","",""
"item","700"," ","html-keyboard-response","159","2.0.0","5765","qkh","25","female","true","true","","<p class=""stimulus"">_________ | ____ | chases | __________ | ______</p>","exp_item","s3","sr","sp","",""
"item","529"," ","html-keyboard-response","160","2.0.0","5766","qkh","25","female","true","true","","<p class=""stimulus"">_________ | ____ | ______ | the zebras | _____ </p>","exp_item","s4","sr","sp","",""
"item","475"," ","html-keyboard-response","161","2.0.0","5766","qkh","25","female","true","true","","<p class=""stimulus"">_________ | ____ | ______ | __________ | falls </p>","exp_item","s5","sr","sp","",""
"question","650","0","html-button-response","162","2.0.0","5766","qkh","25","female","true","true","","<h2>Does the horse that chases the zebras fall?</h2>","","","sr","sp","true","true"
"fixation","null","null","html-keyboard-response","163","2.0.0","5766","qkh","25","female","true","true","","<p class=""fixation"">+</p>","","","","","",""
"item","691"," ","html-keyboard-response","164","2.0.0","5766","qkh","25","female","true","true","","<p class=""stimulus"">_________ | ____ | _________ | ______ | _____</p>","exp_item","s0","or","ss","",""
"item","554"," ","html-keyboard-response","165","2.0.0","5766","qkh","25","female","true","true","","<p class=""stimulus"">The horse | ____ | _________ | ______ | _____</p>","exp_item","s1","or","ss","",""
"item","690"," ","html-keyboard-response","166","2.0.0","5766","qkh","25","female","true","true","","<p class=""stimulus"">_________ | that | _________ | ______ | _____</p>","exp_item","s2","or","ss","",""
"item","834"," ","html-keyboard-response","167","2.0.0","5766","qkh","25","female","true","true","","<p class=""stimulus"">_________ | ____ | the zebra | ______ | _____</p>","exp_item","s3","or","ss","",""
"item","637"," ","html-keyboard-response","168","2.0.0","5766","qkh","25","female","true","true","","<p class=""stimulus"">_________ | ____ | _________ | chases | _____</p>","exp_item","s4","or","ss","",""
"item","526"," ","html-keyboard-response","169","2.0.0","5766","qkh","25","female","true","true","","<p class=""stimulus"">_________ | ____ | _________ | ______ | falls</p>","exp_item","s5","or","ss","",""
"question","517","0","html-button-response","170","2.0.0","5766","qkh","25","female","true","true","","<h2>Does the horse that the zebra chases fall?</h2>","","","or","ss","true","true"
"fixation","null","null","html-keyboard-response","171","2.0.0","5766","qkh","25","female","true","true","","<p class=""fixation"">+</p>","","","","","",""
"item","566"," ","html-keyboard-response","172","2.0.0","5766","qkh","25","female","true","true","","<p class=""stimulus"">________ | ___ | _____ | _______ | ______</p>","fill_item","s0","sr","ss","",""
"item","955"," ","html-keyboard-response","173","2.0.0","5766","qkh","25","female","true","true","","<p class=""stimulus"">The chef | ___ | _____ | _______ | ______</p>","fill_item","s1","sr","ss","",""
"item","646"," ","html-keyboard-response","174","2.0.0","5766","qkh","25","female","true","true","","<p class=""stimulus"">________ | who | _____ | _______ | ______</p>","fill_item","s2","sr","ss","",""
"item","1055"," ","html-keyboard-response","175","2.0.0","5766","qkh","25","female","true","true","","<p class=""stimulus"">________ | ___ | opens |________ | ______</p>","fill_item","s3","sr","ss","",""
"item","910"," ","html-keyboard-response","176","2.0.0","5767","qkh","25","female","true","true","","<p class=""stimulus"">________ | ___ | _____ | the box | ______</p>","fill_item","s4","sr","ss","",""
"item","532"," ","html-keyboard-response","177","2.0.0","5767","qkh","25","female","true","true","","<p class=""stimulus"">________ | ___ | _____ | _______ | smiles</p>","fill_item","s5","sr","ss","",""
"question","790","1","html-button-response","178","2.0.0","5767","qkh","25","female","true","true","","<h2>Does the chef who opens the box smile?</h2>","","","sr","ss","true","false"
"fixation","null","null","html-keyboard-response","179","2.0.0","5767","qkh","25","female","true","true","","<p class=""fixation"">+</p>","","","","","",""
"item","1147"," ","html-keyboard-response","180","2.0.0","5767","qkh","25","female","true","true","","<p class=""stimulus"">_________ | ___ | _____ | __________ | ______</p>","fill_item","s0","sr","ss","",""
"item","506"," ","html-keyboard-response","181","2.0.0","5767","qkh","25","female","true","true","","<p class=""stimulus"">The woman | ___ | _____ | __________ | ______</p>","fill_item","s1","sr","ss","",""
"item","559"," ","html-keyboard-response","182","2.0.0","5767","qkh","25","female","true","true","","<p class=""stimulus"">_________ | who | _____ | __________ | ______</p>","fill_item","s2","sr","ss","",""
"item","501"," ","html-keyboard-response","183","2.0.0","5767","qkh","25","female","true","true","","<p class=""stimulus"">_________ | ___ | burns |___________ | ______</p>","fill_item","s3","sr","ss","",""
"item","578"," ","html-keyboard-response","184","2.0.0","5767","qkh","25","female","true","true","","<p class=""stimulus"">_________ | ___ | _____ | the letter | ______</p>","fill_item","s4","sr","ss","",""
"item","538"," ","html-keyboard-response","185","2.0.0","5767","qkh","25","female","true","true","","<p class=""stimulus"">_________ | ___ | _____ | __________ | leaves</p>","fill_item","s5","sr","ss","",""
"question","504","0","html-button-response","186","2.0.0","5767","qkh","25","female","true","true","","<h2>Does the woman who burns the letter leave?</h2>","","","sr","ss","true","true"
"fixation","null","null","html-keyboard-response","187","2.0.0","5767","qkh","25","female","true","true","","<p class=""fixation"">+</p>","","","","","",""
"item","597"," ","html-keyboard-response","188","2.0.0","5767","qkh","25","female","true","true","","<p class=""stimulus"">_________ | ____ | __________ | ______ | ____</p>","exp_item","s0","or","sp","",""
"item","525"," ","html-keyboard-response","189","2.0.0","5768","qkh","25","female","true","true","","<p class=""stimulus"">The zebra | ____ | __________ | ______ | ____</p>","exp_item","s1","or","sp","",""
"item","616"," ","html-keyboard-response","190","2.0.0","5768","qkh","25","female","true","true","","<p class=""stimulus"">_________ | that | __________ | ______ | ____</p>","exp_item","s2","or","sp","",""
"item","582"," ","html-keyboard-response","191","2.0.0","5768","qkh","25","female","true","true","","<p class=""stimulus"">_________ | ____ | the horses | ______ | ____</p>","exp_item","s3","or","sp","",""
"item","601"," ","html-keyboard-response","192","2.0.0","5768","qkh","25","female","true","true","","<p class=""stimulus"">_________ | ____ | __________ | follow | ____</p>","exp_item","s4","or","sp","",""
"item","551"," ","html-keyboard-response","193","2.0.0","5768","qkh","25","female","true","true","","<p class=""stimulus"">_________ | ____ | __________ | ______ | runs</p>","exp_item","s5","or","sp","",""
"question","555","0","html-button-response","194","2.0.0","5768","qkh","25","female","true","true","","<h2>Does the zebra that the horses follow run?</h2>","","","or","sp","true","true"
"fixation","null","null","html-keyboard-response","195","2.0.0","5768","qkh","25","female","true","true","","<p class=""fixation"">+</p>","","","","","",""
"item","659"," ","html-keyboard-response","196","2.0.0","5768","qkh","25","female","true","true","","<p class=""stimulus"">________ | ____ | _______ | ____ | _____</p>","exp_item","s0","or","ps","",""
"item","626"," ","html-keyboard-response","197","2.0.0","5768","qkh","25","female","true","true","","<p class=""stimulus"">The cats | ____ | _______ | ____ | _____</p>","exp_item","s1","or","ps","",""
"item","559"," ","html-keyboard-response","198","2.0.0","5768","qkh","25","female","true","true","","<p class=""stimulus"">________ | that | _______ | ____ | _____</p>","exp_item","s2","or","ps","",""
"item","701"," ","html-keyboard-response","199","2.0.0","5768","qkh","25","female","true","true","","<p class=""stimulus"">________ | ____ | the dog | ____ | _____</p>","exp_item","s3","or","ps","",""
"item","543"," ","html-keyboard-response","200","2.0.0","5768","qkh","25","female","true","true","","<p class=""stimulus"">________ | ____ | _______ | hugs | _____</p>","exp_item","s4","or","ps","",""
"item","567"," ","html-keyboard-response","201","2.0.0","5768","qkh","25","female","true","true","","<p class=""stimulus"">________ | ____ | _______ | ____ | smile</p>","exp_item","s5","or","ps","",""
"question","537","1","html-button-response","202","2.0.0","5768","qkh","25","female","true","true","","<h2>Do the cats that the dog hugs smile?</h2>","","","or","ps","true","false"
"fixation","null","null","html-keyboard-response","203","2.0.0","5768","qkh","25","female","true","true","","<p class=""fixation"">+</p>","","","","","",""
"item","584"," ","html-keyboard-response","204","2.0.0","5768","qkh","25","female","true","true","","<p class=""stimulus"">__________ | ____ | ______ | _________ | ___</p>","exp_item","s0","sr","ps","",""
"item","653"," ","html-keyboard-response","205","2.0.0","5768","qkh","25","female","true","true","","<p class=""stimulus"">The zebras | ____ | ______ | _________ | ___</p>","exp_item","s1","sr","ps","",""
"item","1176"," ","html-keyboard-response","206","2.0.0","5768","qkh","25","female","true","true","","<p class=""stimulus"">__________ | that | ______ | _________ | ___</p>","exp_item","s2","sr","ps","",""
"item","750"," ","html-keyboard-response","207","2.0.0","5769","qkh","25","female","true","true","","<p class=""stimulus"">__________ | ____ | follow | _________ | ___</p>","exp_item","s3","sr","ps","",""
"item","547"," ","html-keyboard-response","208","2.0.0","5769","qkh","25","female","true","true","","<p class=""stimulus"">__________ | ____ | ______ | the horse | ___</p>","exp_item","s4","sr","ps","",""
"item","663"," ","html-keyboard-response","209","2.0.0","5769","qkh","25","female","true","true","","<p class=""stimulus"">__________ | ____ | ______ | _________ | run</p>","exp_item","s5","sr","ps","",""
"question","509","0","html-button-response","210","2.0.0","5769","qkh","25","female","true","true","","<h2>Do the zebras that follow the horse run?</h2>","","","sr","ps","true","true"
"fixation","null","null","html-keyboard-response","211","2.0.0","5769","qkh","25","female","true","true","","<p class=""fixation"">+</p>","","","","","",""
"item","478"," ","html-keyboard-response","212","2.0.0","5769","qkh","25","female","true","true","","<p class=""stimulus"">__________ | ___ | _______ | __________ | _____</p>","fill_item","s0","sr","ss","",""
"item","520"," ","html-keyboard-response","213","2.0.0","5769","qkh","25","female","true","true","","<p class=""stimulus"">The singer | ___ | _______ | __________ | _____</p>","fill_item","s1","sr","ss","",""
"item","522"," ","html-keyboard-response","214","2.0.0","5769","qkh","25","female","true","true","","<p class=""stimulus"">__________ | who | _______ | __________ | _____</p>","fill_item","s2","sr","ss","",""
"item","512"," ","html-keyboard-response","215","2.0.0","5769","qkh","25","female","true","true","","<p class=""stimulus"">__________ | ___ | smashes |___________ | _____</p>","fill_item","s3","sr","ss","",""
"item","430"," ","html-keyboard-response","216","2.0.0","5769","qkh","25","female","true","true","","<p class=""stimulus"">__________ | ___ | _______ | the guitar | _____</p>","fill_item","s4","sr","ss","",""
"item","564"," ","html-keyboard-response","217","2.0.0","5769","qkh","25","female","true","true","","<p class=""stimulus"">__________ | ___ | _______ | __________ | cries</p>","fill_item","s5","sr","ss","",""
"question","727","1","html-button-response","218","2.0.0","5769","qkh","25","female","true","true","","<h2>Does the singer who smashes the guitar smile?</h2>","","","sr","ss","false","false"
"fixation","null","null","html-keyboard-response","219","2.0.0","5769","qkh","25","female","true","true","","<p class=""fixation"">+</p>","","","","","",""
"item","500"," ","html-keyboard-response","220","2.0.0","5769","qkh","25","female","true","true","","<p class=""stimulus"">________ | ____ | ________ | ____ | ___</p>","exp_item","s0","or","pp","",""
"item","655"," ","html-keyboard-response","221","2.0.0","5769","qkh","25","female","true","true","","<p class=""stimulus"">The dogs | ____ | ________ | ____ | ___</p>","exp_item","s1","or","pp","",""
"item","664"," ","html-keyboard-response","222","2.0.0","5769","qkh","25","female","true","true","","<p class=""stimulus"">________ | that | ________ | ____ | ___</p>","exp_item","s2","or","pp","",""
"item","461"," ","html-keyboard-response","223","2.0.0","5769","qkh","25","female","true","true","","<p class=""stimulus"">________ | ____ | the cats | ____ | ___</p>","exp_item","s3","or","pp","",""
"item","739"," ","html-keyboard-response","224","2.0.0","5769","qkh","25","female","true","true","","<p class=""stimulus"">________ | ____ | ________ | push | ___</p>","exp_item","s4","or","pp","",""
"item","554"," ","html-keyboard-response","225","2.0.0","5769","qkh","25","female","true","true","","<p class=""stimulus"">________ | ____ | ________ | ____ | cry</p>","exp_item","s5","or","pp","",""
"question","1032","0","html-button-response","226","2.0.0","5770","qkh","25","female","true","true","","<h2>Do the cats that the dogs push cry?</h2>","","","or","pp","false","true"
"fixation","null","null","html-keyboard-response","227","2.0.0","5770","qkh","25","female","true","true","","<p class=""fixation"">+</p>","","","","","",""
"item","717"," ","html-keyboard-response","228","2.0.0","5770","qkh","25","female","true","true","","<p class=""stimulus"">_______ | ____ | ____ | ________ | ______</p>","exp_item","s0","sr","sp","",""
"item","1204"," ","html-keyboard-response","229","2.0.0","5770","qkh","25","female","true","true","","<p class=""stimulus"">The cat | ____ | ____ | ________ | ______</p>","exp_item","s1","sr","sp","",""
"item","470"," ","html-keyboard-response","230","2.0.0","5770","qkh","25","female","true","true","","<p class=""stimulus"">_______ | that | ____ | ________ | ______</p>","exp_item","s2","sr","sp","",""
"item","686"," ","html-keyboard-response","231","2.0.0","5770","qkh","25","female","true","true","","<p class=""stimulus"">_______ | ____ | hugs | ________ | ______</p>","exp_item","s3","sr","sp","",""
"item","641"," ","html-keyboard-response","232","2.0.0","5770","qkh","25","female","true","true","","<p class=""stimulus"">_______ | ____ | ____ | the dogs | ______</p>","exp_item","s4","sr","sp","",""
"item","667"," ","html-keyboard-response","233","2.0.0","5770","qkh","25","female","true","true","","<p class=""stimulus"">_______ | ____ | ____ | ________ | smiles</p>","exp_item","s5","sr","sp","",""
"question","803","0","html-button-response","234","2.0.0","5770","qkh","25","female","true","true","","<h2>Does the cat that hugs the dogs smile?</h2>","","","sr","sp","true","true"
"fixation","null","null","html-keyboard-response","235","2.0.0","5770","qkh","25","female","true","true","","<p class=""fixation"">+</p>","","","","","",""
"item","698"," ","html-keyboard-response","236","2.0.0","5770","qkh","25","female","true","true","","<p class=""stimulus"">________ | ____ | ___ | _______ | _____</p>","exp_item","s0","sr","ps","",""
"item","556"," ","html-keyboard-response","237","2.0.0","5770","qkh","25","female","true","true","","<p class=""stimulus"">The cats | ____ | ___ | _______ | _____</p>","exp_item","s1","sr","ps","",""
"item","1001"," ","html-keyboard-response","238","2.0.0","5770","qkh","25","female","true","true","","<p class=""stimulus"">________ | that | ___ | _______ | _____</p>","exp_item","s2","sr","ps","",""
"item","522"," ","html-keyboard-response","239","2.0.0","5770","qkh","25","female","true","true","","<p class=""stimulus"">________ | ____ | hug | _______ | _____</p>","exp_item","s3","sr","ps","",""
"item","582"," ","html-keyboard-response","240","2.0.0","5770","qkh","25","female","true","true","","<p class=""stimulus"">________ | ____ | ___ | the dog | _____</p>","exp_item","s4","sr","ps","",""
"item","687"," ","html-keyboard-response","241","2.0.0","5770","qkh","25","female","true","true","","<p class=""stimulus"">________ | ____ | ___ | _______ | smile</p>","exp_item","s5","sr","ps","",""
"question","565","0","html-button-response","242","2.0.0","5770","qkh","25","female","true","true","","<h2>Do the cats that hug the dogs smile?</h2>","","","sr","ps","true","true"
"fixation","null","null","html-keyboard-response","243","2.0.0","5770","qkh","25","female","true","true","","<p class=""fixation"">+</p>","","","","","",""
"item","1479"," ","html-keyboard-response","244","2.0.0","5770","qkh","25","female","true","true","","<p class=""stimulus"">_________ | ____ | ______ | _________ | _____</p>","exp_item","s0","sr","ss","",""
"item","695"," ","html-keyboard-response","245","2.0.0","5771","qkh","25","female","true","true","","<p class=""stimulus"">The horse | ____ | ______ | _________ | _____</p>","exp_item","s1","sr","ss","",""
"item","526"," ","html-keyboard-response","246","2.0.0","5771","qkh","25","female","true","true","","<p class=""stimulus"">_________ | that | ______ | _________ | _____</p>","exp_item","s2","sr","ss","",""
"item","652"," ","html-keyboard-response","247","2.0.0","5771","qkh","25","female","true","true","","<p class=""stimulus"">_________ | ____ | chases | _________ | _____</p>","exp_item","s3","sr","ss","",""
"item","697"," ","html-keyboard-response","248","2.0.0","5771","qkh","25","female","true","true","","<p class=""stimulus"">_________ | ____ | ______ | the zebra | _____</p>","exp_item","s4","sr","ss","",""
"item","694"," ","html-keyboard-response","249","2.0.0","5771","qkh","25","female","true","true","","<p class=""stimulus"">_________ | ____ | ______ | _________ | falls</p>","exp_item","s5","sr","ss","",""
"question","634","1","html-button-response","250","2.0.0","5771","qkh","25","female","true","true","","<h2>Does the horse that chases the zebra fall?</h2>","","","sr","ss","true","false"
"fixation","null","null","html-keyboard-response","251","2.0.0","5771","qkh","25","female","true","true","","<p class=""fixation"">+</p>","","","","","",""
"item","667"," ","html-keyboard-response","252","2.0.0","5771","qkh","25","female","true","true","","<p class=""stimulus"">_______ | ____ | ____ | _______ | ______</p>","exp_item","s0","sr","ss","",""
"item","585"," ","html-keyboard-response","253","2.0.0","5771","qkh","25","female","true","true","","<p class=""stimulus"">The cat | ____ | ____ | _______ | ______</p>","exp_item","s1","sr","ss","",""
"item","616"," ","html-keyboard-response","254","2.0.0","5771","qkh","25","female","true","true","","<p class=""stimulus"">_______ | that | ____ | _______ | ______</p>","exp_item","s2","sr","ss","",""
"item","660"," ","html-keyboard-response","255","2.0.0","5771","qkh","25","female","true","true","","<p class=""stimulus"">_______ | ____ | hugs | _______ | ______</p>","exp_item","s3","sr","ss","",""
"item","832"," ","html-keyboard-response","256","2.0.0","5771","qkh","25","female","true","true","","<p class=""stimulus"">_______ | ____ | ____ | the dog | ______</p>","exp_item","s4","sr","ss","",""
"item","717"," ","html-keyboard-response","257","2.0.0","5771","qkh","25","female","true","true","","<p class=""stimulus"">_______ | ____ | ____ | _______ | smiles</p>","exp_item","s5","sr","ss","",""
"question","540","0","html-button-response","258","2.0.0","5771","qkh","25","female","true","true","","<h2>Does the cat that hugs the dog smile?</h2>","","","sr","ss","true","true"
"fixation","null","null","html-keyboard-response","259","2.0.0","5771","qkh","25","female","true","true","","<p class=""fixation"">+</p>","","","","","",""
"item","907"," ","html-keyboard-response","260","2.0.0","5772","qkh","25","female","true","true","","<p class=""stimulus"">________ | ____ | ____ | ________ | ___</p>","exp_item","s0","sr","pp","",""
"item","440"," ","html-keyboard-response","261","2.0.0","5772","qkh","25","female","true","true","","<p class=""stimulus"">The dogs | ____ | ____ | ________ | ___</p>","exp_item","s1","sr","pp","",""
"item","625"," ","html-keyboard-response","262","2.0.0","5772","qkh","25","female","true","true","","<p class=""stimulus"">________ | that | ____ | ________ | ___</p>","exp_item","s2","sr","pp","",""
"item","480"," ","html-keyboard-response","263","2.0.0","5772","qkh","25","female","true","true","","<p class=""stimulus"">________ | ____ | push | ________ | ___</p>","exp_item","s3","sr","pp","",""
"item","454"," ","html-keyboard-response","264","2.0.0","5772","qkh","25","female","true","true","","<p class=""stimulus"">________ | ____ | ____ | the cats | ___</p>","exp_item","s4","sr","pp","",""
"item","654"," ","html-keyboard-response","265","2.0.0","5772","qkh","25","female","true","true","","<p class=""stimulus"">________ | ____ | ____ | ________ | cry</p>","exp_item","s5","sr","pp","",""
"question","1672","1","html-button-response","266","2.0.0","5772","qkh","25","female","true","true","","<h2>Do the cats that push the dogs cry?</h2>","","","sr","pp","false","false"
"fixation","null","null","html-keyboard-response","267","2.0.0","5772","qkh","25","female","true","true","","<p class=""fixation"">+</p>","","","","","",""
"item","627"," ","html-keyboard-response","268","2.0.0","5772","qkh","25","female","true","true","","<p class=""stimulus"">__________ | ____ | ______ | __________ | ___</p>","exp_item","s0","sr","pp","",""
"item","980"," ","html-keyboard-response","269","2.0.0","5772","qkh","25","female","true","true","","<p class=""stimulus"">The zebras | ____ | ______ | __________ | ___</p>","exp_item","s1","sr","pp","",""
"item","588"," ","html-keyboard-response","270","2.0.0","5772","qkh","25","female","true","true","","<p class=""stimulus"">__________ | that | ______ | __________ | ___</p>","exp_item","s2","sr","pp","",""
"item","723"," ","html-keyboard-response","271","2.0.0","5772","qkh","25","female","true","true","","<p class=""stimulus"">__________ | ____ | follow | __________ | ___</p>","exp_item","s3","sr","pp","",""
"item","551"," ","html-keyboard-response","272","2.0.0","5772","qkh","25","female","true","true","","<p class=""stimulus"">__________ | ____ | ______ | the horses | ___</p>","exp_item","s4","sr","pp","",""
"item","612"," ","html-keyboard-response","273","2.0.0","5772","qkh","25","female","true","true","","<p class=""stimulus"">__________ | ____ | ______ | __________ | run</p>","exp_item","s5","sr","pp","",""
"question","739","0","html-button-response","274","2.0.0","5772","qkh","25","female","true","true","","<h2>Do the zebras that follow the horses run?</h2>","","","sr","pp","true","true"
"fixation","null","null","html-keyboard-response","275","2.0.0","5772","qkh","25","female","true","true","","<p class=""fixation"">+</p>","","","","","",""
"item","525"," ","html-keyboard-response","276","2.0.0","5772","qkh","25","female","true","true","","<p class=""stimulus"">_______ | ____ | ________ | ___ | ______</p>","exp_item","s0","or","sp","",""
"item","934"," ","html-keyboard-response","277","2.0.0","5772","qkh","25","female","true","true","","<p class=""stimulus"">The cat | ____ | ________ | ___ | ______</p>","exp_item","s1","or","sp","",""
"item","656"," ","html-keyboard-response","278","2.0.0","5772","qkh","25","female","true","true","","<p class=""stimulus"">_______ | that | ________ | ___ | ______</p>","exp_item","s2","or","sp","",""
"item","529"," ","html-keyboard-response","279","2.0.0","5773","qkh","25","female","true","true","","<p class=""stimulus"">_______ | ____ | the dogs | ___ | ______</p>","exp_item","s3","or","sp","",""
"item","532"," ","html-keyboard-response","280","2.0.0","5773","qkh","25","female","true","true","","<p class=""stimulus"">_______ | ____ | ________ | hug | ______</p>","exp_item","s4","or","sp","",""
"item","532"," ","html-keyboard-response","281","2.0.0","5773","qkh","25","female","true","true","","<p class=""stimulus"">_______ | ____ | ________ | ___ | smiles</p>","exp_item","s5","or","sp","",""
"question","497","1","html-button-response","282","2.0.0","5773","qkh","25","female","true","true","","<h2>Does the cat that the dogs hug smile?","","","or","sp","true","false"
"fixation","null","null","html-keyboard-response","283","2.0.0","5773","qkh","25","female","true","true","","<p class=""fixation"">+</p>","","","","","",""
"item","564"," ","html-keyboard-response","284","2.0.0","5773","qkh","25","female","true","true","","<p class=""stimulus"">_______ | ____ | ______ | _______ | _____</p>","exp_item","s0","sr","ss","",""
"item","600"," ","html-keyboard-response","285","2.0.0","5773","qkh","25","female","true","true","","<p class=""stimulus"">The dog | ____ | ______ | _______ | _____</p>","exp_item","s1","sr","ss","",""
"item","701"," ","html-keyboard-response","286","2.0.0","5773","qkh","25","female","true","true","","<p class=""stimulus"">_______ | that | ______ | _______ | _____</p>","exp_item","s2","sr","ss","",""
"item","437"," ","html-keyboard-response","287","2.0.0","5773","qkh","25","female","true","true","","<p class=""stimulus"">_______ | ____ | pushes | _______ | _____</p>","exp_item","s3","sr","ss","",""
"item","492"," ","html-keyboard-response","288","2.0.0","5773","qkh","25","female","true","true","","<p class=""stimulus"">_______ | ____ | ______ | the cat | _____</p>","exp_item","s4","sr","ss","",""
"item","545"," ","html-keyboard-response","289","2.0.0","5773","qkh","25","female","true","true","","<p class=""stimulus"">_______ | ____ | ______ | _______ | cries</p>","exp_item","s5","sr","ss","",""
"question","475","0","html-button-response","290","2.0.0","5773","qkh","25","female","true","true","","<h2>Does the cat that pushes the dog cry?</h2>","","","sr","ss","false","true"
"fixation","null","null","html-keyboard-response","291","2.0.0","5773","qkh","25","female","true","true","","<p class=""fixation"">+</p>","","","","","",""
"item","755"," ","html-keyboard-response","292","2.0.0","5773","qkh","25","female","true","true","","<p class=""stimulus"">__________ | ____ | _________ | ______ | _____</p>","exp_item","s0","or","ps","",""
"item","537"," ","html-keyboard-response","293","2.0.0","5773","qkh","25","female","true","true","","<p class=""stimulus"">The horses | ____ | _________ | ______ | _____</p>","exp_item","s1","or","ps","",""
"item","1036"," ","html-keyboard-response","294","2.0.0","5773","qkh","25","female","true","true","","<p class=""stimulus"">__________ | that | _________ | ______ | _____</p>","exp_item","s2","or","ps","",""
"item","532"," ","html-keyboard-response","295","2.0.0","5773","qkh","25","female","true","true","","<p class=""stimulus"">__________ | ____ | the zebra | ______ | _____</p>","exp_item","s3","or","ps","",""
"item","669"," ","html-keyboard-response","296","2.0.0","5773","qkh","25","female","true","true","","<p class=""stimulus"">__________ | ____ | _________ | chases | ____ </p>","exp_item","s4","or","ps","",""
"item","706"," ","html-keyboard-response","297","2.0.0","5773","qkh","25","female","true","true","","<p class=""stimulus"">__________ | ____ | _________ | ______ | fall </p>","exp_item","s5","or","ps","",""
"question","506","1","html-button-response","298","2.0.0","5774","qkh","25","female","true","true","","<h2>Do the horses tha the zebra chases fall?</h2>","","","or","ps","true","false"
"fixation","null","null","html-keyboard-response","299","2.0.0","5774","qkh","25","female","true","true","","<p class=""fixation"">+</p>","","","","","",""
"item","645"," ","html-keyboard-response","300","2.0.0","5774","qkh","25","female","true","true","","<p class=""stimulus"">__________ | ___ | _____ | __________ | _____</p>","fill_item","s0","sr","ss","",""
"item","681"," ","html-keyboard-response","301","2.0.0","5774","qkh","25","female","true","true","","<p class=""stimulus"">The singer | ___ | _____ | __________ | _____</p>","fill_item","s1","sr","ss","",""
"item","599"," ","html-keyboard-response","302","2.0.0","5774","qkh","25","female","true","true","","<p class=""stimulus"">__________ | who | _____ | __________ | _____</p>","fill_item","s2","sr","ss","",""
"item","932"," ","html-keyboard-response","303","2.0.0","5774","qkh","25","female","true","true","","<p class=""stimulus"">__________ | ___ | plays |___________ | _____</p>","fill_item","s3","sr","ss","",""
"item","827"," ","html-keyboard-response","304","2.0.0","5774","qkh","25","female","true","true","","<p class=""stimulus"">__________ | ___ | _____ | the guitar | _____</p>","fill_item","s4","sr","ss","",""
"item","1193"," ","html-keyboard-response","305","2.0.0","5774","qkh","25","female","true","true","","<p class=""stimulus"">__________ | ___ | _____ | __________ | sings</p>","fill_item","s5","sr","ss","",""
"question","646","0","html-button-response","306","2.0.0","5774","qkh","25","female","true","true","","<h2>Does the singer who plays the guitar cry?</h2>","","","sr","ss","false","true"
"fixation","null","null","html-keyboard-response","307","2.0.0","5774","qkh","25","female","true","true","","<p class=""fixation"">+</p>","","","","","",""
"item","682"," ","html-keyboard-response","308","2.0.0","5774","qkh","25","female","true","true","","<p class=""stimulus"">________ | ___ | _____ | _______ | _____</p>","fill_item","s0","sr","ss","",""
"item","512"," ","html-keyboard-response","309","2.0.0","5774","qkh","25","female","true","true","","<p class=""stimulus"">The chef | ___ | _____ | _______ | _____</p>","fill_item","s1","sr","ss","",""
"item","644"," ","html-keyboard-response","310","2.0.0","5774","qkh","25","female","true","true","","<p class=""stimulus"">________ | who | _____ | _______ | _____</p>","fill_item","s2","sr","ss","",""
"item","690"," ","html-keyboard-response","311","2.0.0","5774","qkh","25","female","true","true","","<p class=""stimulus"">________ | ___ | grabs |________ | _____</p>","fill_item","s3","sr","ss","",""
"item","594"," ","html-keyboard-response","312","2.0.0","5774","qkh","25","female","true","true","","<p class=""stimulus"">________ | ___ | _____ | the box | _____</p>","fill_item","s4","sr","ss","",""
"item","569"," ","html-keyboard-response","313","2.0.0","5774","qkh","25","female","true","true","","<p class=""stimulus"">________ | ___ | _____ | _______ | jumps</p>","fill_item","s5","sr","ss","",""
"question","513","1","html-button-response","314","2.0.0","5774","qkh","25","female","true","true","","<h2>Does the box that the chef grabs fall?</h2>","","","sr","ss","false","false"
"fixation","null","null","html-keyboard-response","315","2.0.0","5774","qkh","25","female","true","true","","<p class=""fixation"">+</p>","","","","","",""
"item","607"," ","html-keyboard-response","316","2.0.0","5774","qkh","25","female","true","true","","<p class=""stimulus"">_______ | ____ | _______ | ____ | ______</p>","exp_item","s0","or","ss","",""
"item","906"," ","html-keyboard-response","317","2.0.0","5775","qkh","25","female","true","true","","<p class=""stimulus"">The cat | ____ | _______ | ____ | ______</p>","exp_item","s1","or","ss","",""
"item","534"," ","html-keyboard-response","318","2.0.0","5775","qkh","25","female","true","true","","<p class=""stimulus"">_______ | that | _______ | ____ | ______</p>","exp_item","s2","or","ss","",""
"item","890"," ","html-keyboard-response","319","2.0.0","5775","qkh","25","female","true","true","","<p class=""stimulus"">_______ | ____ | the dog | ____ | ______</p>","exp_item","s3","or","ss","",""
"item","540"," ","html-keyboard-response","320","2.0.0","5775","qkh","25","female","true","true","","<p class=""stimulus"">_______ | ____ | _______ | hugs | ______</p>","exp_item","s4","or","ss","",""
"item","552"," ","html-keyboard-response","321","2.0.0","5775","qkh","25","female","true","true","","<p class=""stimulus"">_______ | ____ | _______ | ____ | smiles</p>","exp_item","s5","or","ss","",""
"question","656","0","html-button-response","322","2.0.0","5775","qkh","25","female","true","true","","<h2>Does the cat that the dog hugs smile?","","","or","ss","true","true"
"fixation","null","null","html-keyboard-response","323","2.0.0","5775","qkh","25","female","true","true","","<p class=""fixation"">+</p>","","","","","",""
"item","519"," ","html-keyboard-response","324","2.0.0","5775","qkh","25","female","true","true","","<p class=""stimulus"">________ | ____ | ____ | _______ | ___</p>","exp_item","s0","sr","ps","",""
"item","550"," ","html-keyboard-response","325","2.0.0","5775","qkh","25","female","true","true","","<p class=""stimulus"">The dogs | ____ | ____ | _______ | ___</p>","exp_item","s1","sr","ps","",""
"item","602"," ","html-keyboard-response","326","2.0.0","5775","qkh","25","female","true","true","","<p class=""stimulus"">________ | that | ____ | _______ | ___</p>","exp_item","s2","sr","ps","",""
"item","653"," ","html-keyboard-response","327","2.0.0","5775","qkh","25","female","true","true","","<p class=""stimulus"">________ | ____ | push | _______ | ___</p>","exp_item","s3","sr","ps","",""
"item","534"," ","html-keyboard-response","328","2.0.0","5775","qkh","25","female","true","true","","<p class=""stimulus"">________ | ____ | ____ | the cat | ___</p>","exp_item","s4","sr","ps","",""
"item","1117"," ","html-keyboard-response","329","2.0.0","5775","qkh","25","female","true","true","","<p class=""stimulus"">________ | ____ | ____ | _______ | cry</p>","exp_item","s5","sr","ps","",""
"question","758","1","html-button-response","330","2.0.0","5775","qkh","25","female","true","true","","<h2>Does the cat that pushes the dogs cry?</h2>","","","sr","ps","false","false"
"fixation","null","null","html-keyboard-response","331","2.0.0","5775","qkh","25","female","true","true","","<p class=""fixation"">+</p>","","","","","",""
"item","793"," ","html-keyboard-response","332","2.0.0","5775","qkh","25","female","true","true","","<p class=""stimulus"">_________ | ____ | __________ | _____ | _____</p>","exp_item","s0","or","sp","",""
"item","663"," ","html-keyboard-response","333","2.0.0","5775","qkh","25","female","true","true","","<p class=""stimulus"">The horse | ____ | __________ | _____ | _____</p>","exp_item","s1","or","sp","",""
"item","412"," ","html-keyboard-response","334","2.0.0","5775","qkh","25","female","true","true","","<p class=""stimulus"">_________ | that | __________ | _____ | _____</p>","exp_item","s2","or","sp","",""
"item","536"," ","html-keyboard-response","335","2.0.0","5776","qkh","25","female","true","true","","<p class=""stimulus"">_________ | ____ | the zebras | _____ | _____</p>","exp_item","s3","or","sp","",""
"item","544"," ","html-keyboard-response","336","2.0.0","5776","qkh","25","female","true","true","","<p class=""stimulus"">_________ | ____ | __________ | chase | ____ </p>","exp_item","s4","or","sp","",""
"item","705"," ","html-keyboard-response","337","2.0.0","5776","qkh","25","female","true","true","","<p class=""stimulus"">_________ | ____ | __________ | _____ | falls</p>","exp_item","s5","or","sp","",""
"question","738","0","html-button-response","338","2.0.0","5776","qkh","25","female","true","true","","<h2>Does the horse that the zebras chase fall?</h2>","","","or","sp","true","true"
"fixation","null","null","html-keyboard-response","339","2.0.0","5776","qkh","25","female","true","true","","<p class=""fixation"">+</p>","","","","","",""
"item","832"," ","html-keyboard-response","340","2.0.0","5776","qkh","25","female","true","true","","<p class=""stimulus"">__________ | ___ | _____ | __________ | _____</p>","fill_item","s0","sr","ss","",""
"item","610"," ","html-keyboard-response","341","2.0.0","5776","qkh","25","female","true","true","","<p class=""stimulus"">The singer | ___ | _____ | __________ | _____</p>","fill_item","s1","sr","ss","",""
"item","585"," ","html-keyboard-response","342","2.0.0","5776","qkh","25","female","true","true","","<p class=""stimulus"">__________ | who | _____ | __________ | _____</p>","fill_item","s2","sr","ss","",""
"item","727"," ","html-keyboard-response","343","2.0.0","5776","qkh","25","female","true","true","","<p class=""stimulus"">__________ | ___ | grabs |___________ | _____</p>","fill_item","s3","sr","ss","",""
"item","718"," ","html-keyboard-response","344","2.0.0","5776","qkh","25","female","true","true","","<p class=""stimulus"">__________ | ___ | _____ | the guitar | _____</p>","fill_item","s4","sr","ss","",""
"item","522"," ","html-keyboard-response","345","2.0.0","5776","qkh","25","female","true","true","","<p class=""stimulus"">__________ | ___ | _____ | __________ | cries</p>","fill_item","s5","sr","ss","",""
"question","541","1","html-button-response","346","2.0.0","5776","qkh","25","female","true","true","","<h2>Does the singer who grabs the guitar cry?</h2>","","","sr","ss","true","false"
"fixation","null","null","html-keyboard-response","347","2.0.0","5776","qkh","25","female","true","true","","<p class=""fixation"">+</p>","","","","","",""
"item","811"," ","html-keyboard-response","348","2.0.0","5776","qkh","25","female","true","true","","<p class=""stimulus"">__________ | ____ | _____ | __________ | _____</p>","exp_item","s0","sr","pp","",""
"item","545"," ","html-keyboard-response","349","2.0.0","5776","qkh","25","female","true","true","","<p class=""stimulus"">The horses | ____ | _____ | __________ | _____</p>","exp_item","s1","sr","pp","",""
"item","658"," ","html-keyboard-response","350","2.0.0","5776","qkh","25","female","true","true","","<p class=""stimulus"">__________ | that | _____ | __________ | _____</p>","exp_item","s2","sr","pp","",""
"item","531"," ","html-keyboard-response","351","2.0.0","5776","qkh","25","female","true","true","","<p class=""stimulus"">__________ | ____ | chase | __________ | _____</p>","exp_item","s3","sr","pp","",""
"item","673"," ","html-keyboard-response","352","2.0.0","5776","qkh","25","female","true","true","","<p class=""stimulus"">__________ | ____ | _____ | the zebras | ____ </p>","exp_item","s4","sr","pp","",""
"item","649"," ","html-keyboard-response","353","2.0.0","5777","qkh","25","female","true","true","","<p class=""stimulus"">__________ | ____ | _____ | __________ | fall </p>","exp_item","s5","sr","pp","",""
"question","905","1","html-button-response","354","2.0.0","5777","qkh","25","female","true","true","","<h2>Do the horses that chase the zebras fall?</h2>","","","sr","pp","true","false"
"fixation","null","null","html-keyboard-response","355","2.0.0","5777","qkh","25","female","true","true","","<p class=""fixation"">+</p>","","","","","",""
"item","434"," ","html-keyboard-response","356","2.0.0","5777","qkh","25","female","true","true","","<p class=""stimulus"">_______ | ____ | ______ | ________ | _____</p>","exp_item","s0","sr","sp","",""
"item","584"," ","html-keyboard-response","357","2.0.0","5777","qkh","25","female","true","true","","<p class=""stimulus"">The dog | ____ | ______ | ________ | _____</p>","exp_item","s1","sr","sp","",""
"item","694"," ","html-keyboard-response","358","2.0.0","5777","qkh","25","female","true","true","","<p class=""stimulus"">_______ | that | ______ | ________ | _____</p>","exp_item","s2","sr","sp","",""
"item","535"," ","html-keyboard-response","359","2.0.0","5777","qkh","25","female","true","true","","<p class=""stimulus"">_______ | ____ | pushes | ________ | _____</p>","exp_item","s3","sr","sp","",""
"item","471"," ","html-keyboard-response","360","2.0.0","5777","qkh","25","female","true","true","","<p class=""stimulus"">_______ | ____ | ______ | the cats | _____</p>","exp_item","s4","sr","sp","",""
"item","580"," ","html-keyboard-response","361","2.0.0","5777","qkh","25","female","true","true","","<p class=""stimulus"">_______ | ____ | ______ | ________ | cries</p>","exp_item","s5","sr","sp","",""
"question","663","0","html-button-response","362","2.0.0","5777","qkh","25","female","true","true","","<h2>Do the cats that push the dog cry?</h2>","","","sr","sp","false","true"
"fixation","null","null","html-keyboard-response","363","2.0.0","5777","qkh","25","female","true","true","","<p class=""fixation"">+</p>","","","","","",""
"item","689"," ","html-keyboard-response","364","2.0.0","5777","qkh","25","female","true","true","","<p class=""stimulus"">________ | ___ | ______ | _______ | _______</p>","fill_item","s0","sr","ss","",""
"item","581"," ","html-keyboard-response","365","2.0.0","5777","qkh","25","female","true","true","","<p class=""stimulus"">The chef | ___ | ______ | _______ | _______</p>","fill_item","s1","sr","ss","",""
"item","806"," ","html-keyboard-response","366","2.0.0","5777","qkh","25","female","true","true","","<p class=""stimulus"">________ | who | ______ | _______ | _______</p>","fill_item","s2","sr","ss","",""
"item","585"," ","html-keyboard-response","367","2.0.0","5777","qkh","25","female","true","true","","<p class=""stimulus"">________ | ___ | throws |________ | _______</p>","fill_item","s3","sr","ss","",""
"item","710"," ","html-keyboard-response","368","2.0.0","5777","qkh","25","female","true","true","","<p class=""stimulus"">________ | ___ | ______ | the box | _______</p>","fill_item","s4","sr","ss","",""
"item","534"," ","html-keyboard-response","369","2.0.0","5777","qkh","25","female","true","true","","<p class=""stimulus"">________ | ___ | ______ | _______ | screams</p>","fill_item","s5","sr","ss","",""
"question","740","0","html-button-response","370","2.0.0","5777","qkh","25","female","true","true","","<h2>Does the chef who opens the box cry?</h2>","","","sr","ss","false","true"
"fixation","null","null","html-keyboard-response","371","2.0.0","5777","qkh","25","female","true","true","","<p class=""fixation"">+</p>","","","","","",""
"item","689"," ","html-keyboard-response","372","2.0.0","5777","qkh","25","female","true","true","","<p class=""stimulus"">_________ | ___ | ______ | __________ | ______</p>","fill_item","s0","sr","ss","",""
"item","898"," ","html-keyboard-response","373","2.0.0","5777","qkh","25","female","true","true","","<p class=""stimulus"">The woman | ___ | ______ | __________ | ______</p>","fill_item","s1","sr","ss","",""
"item","740"," ","html-keyboard-response","374","2.0.0","5777","qkh","25","female","true","true","","<p class=""stimulus"">_________ | who | ______ | __________ | ______</p>","fill_item","s2","sr","ss","",""
"item","550"," ","html-keyboard-response","375","2.0.0","5778","qkh","25","female","true","true","","<p class=""stimulus"">_________ | ___ | writes |___________ | ______</p>","fill_item","s3","sr","ss","",""
"item","443"," ","html-keyboard-response","376","2.0.0","5778","qkh","25","female","true","true","","<p class=""stimulus"">_________ | ___ | ______ | the letter | ______</p>","fill_item","s4","sr","ss","",""
"item","481"," ","html-keyboard-response","377","2.0.0","5778","qkh","25","female","true","true","","<p class=""stimulus"">_________ | ___ | ______ | __________ | smiles</p>","fill_item","s5","sr","ss","",""
"question","588","1","html-button-response","378","2.0.0","5778","qkh","25","female","true","true","","<h2>Does the woman who writes the letter smile?</h2>","","","sr","ss","true","false"
